timestamp_ms,pressure,ax,ay,az,gx,gy,gz,label
1764140821680,0,-0.094000,-0.015000,1.042000,126,127,127,idle
1764140821700,0,-0.093000,-0.016000,1.044000,126,127,126,idle
1764140821720,0,-0.096000,-0.015000,1.046000,126,127,127,idle
1764140821741,0,-0.096000,-0.015000,1.044000,126,127,127,idle
1764140821761,0,-0.093000,-0.016000,1.051000,126,127,127,idle
1764140821782,0,-0.094000,-0.015000,1.049000,126,127,127,idle
1764140821802,0,-0.091000,-0.016000,1.047000,126,127,127,idle
1764140821823,0,-0.091000,-0.016000,1.048000,126,127,127,idle
1764140821843,0,-0.091000,-0.015000,1.047000,126,127,127,idle
1764140821864,0,-0.091000,-0.016000,1.047000,126,127,126,idle
1764140821884,0,-0.092000,-0.017000,1.047000,126,127,127,idle
1764140821905,0,-0.094000,-0.017000,1.047000,126,127,127,idle
1764140821925,0,-0.094000,-0.016000,1.047000,126,127,127,idle
1764140821946,0,-0.094000,-0.017000,1.046000,126,127,127,idle
1764140821966,0,-0.093000,-0.017000,1.045000,126,127,127,idle
1764140821986,0,-0.092000,-0.015000,1.046000,126,127,127,idle
1764140822007,0,-0.091000,-0.016000,1.046000,126,127,127,idle
1764140822027,0,-0.091000,-0.016000,1.047000,126,127,126,idle
1764140822048,0,-0.092000,-0.015000,1.046000,126,127,127,idle
1764140822069,0,-0.094000,-0.015000,1.046000,126,127,127,idle
1764140822089,0,-0.097000,-0.014000,1.044000,126,127,127,idle
1764140822111,0,-0.097000,-0.014000,1.043000,126,127,126,idle
1764140822130,0,-0.097000,-0.013000,1.044000,126,127,127,idle
1764140822151,0,-0.094000,-0.014000,1.045000,126,127,127,idle
1764140822171,0,-0.093000,-0.016000,1.045000,126,127,127,idle
1764140822192,0,-0.091000,-0.018000,1.047000,126,127,127,idle
1764140822211,0,-0.090000,-0.017000,1.048000,126,127,127,idle
1764140822232,0,-0.091000,-0.017000,1.047000,126,127,126,idle
1764140822253,0,-0.092000,-0.017000,1.046000,126,127,126,idle
1764140822273,0,-0.095000,-0.015000,1.046000,126,127,126,idle
1764140822293,0,-0.095000,-0.015000,1.046000,126,127,127,idle
1764140822314,0,-0.095000,-0.014000,1.046000,126,127,127,idle
1764140822335,0,-0.094000,-0.015000,1.047000,126,127,127,idle
1764140822357,0,-0.093000,-0.015000,1.046000,126,127,127,idle
1764140822378,0,-0.093000,-0.015000,1.046000,126,127,127,idle
1764140822398,0,-0.093000,-0.014000,1.046000,126,127,127,idle
1764140822418,0,-0.094000,-0.015000,1.046000,126,127,127,idle
1764140822439,0,-0.094000,-0.014000,1.045000,126,127,127,idle
1764140822460,0,-0.093000,-0.013000,1.045000,126,127,127,idle
1764140822479,0,-0.094000,-0.012000,1.047000,126,127,127,idle
1764140822500,0,-0.093000,-0.013000,1.047000,126,127,127,idle
1764140822519,0,-0.093000,-0.014000,1.048000,126,127,127,idle
1764140822540,0,-0.093000,-0.014000,1.049000,126,127,127,idle
1764140822560,0,-0.093000,-0.016000,1.048000,126,127,127,idle
1764140822581,0,-0.094000,-0.017000,1.047000,126,127,127,idle
1764140822600,0,-0.095000,-0.017000,1.047000,126,127,127,idle
1764140822622,0,-0.096000,-0.017000,1.047000,126,127,126,idle
1764140822642,0,-0.096000,-0.017000,1.048000,126,127,127,idle
1764140822663,0,-0.094000,-0.016000,1.047000,126,127,127,idle
1764140822683,0,-0.093000,-0.016000,1.048000,126,127,127,idle
1764140822704,0,-0.092000,-0.014000,1.047000,126,127,127,idle
1764140822724,0,-0.091000,-0.015000,1.047000,126,127,127,idle
1764140822744,0,-0.091000,-0.015000,1.045000,126,127,127,idle
1764140822765,0,-0.092000,-0.015000,1.045000,126,127,127,idle
1764140822785,0,-0.094000,-0.015000,1.045000,126,127,127,idle
1764140822804,0,-0.095000,-0.015000,1.045000,126,127,127,idle
1764140822825,0,-0.094000,-0.014000,1.047000,126,127,126,idle
1764140822844,0,-0.093000,-0.016000,1.047000,126,127,126,idle
1764140822865,0,-0.093000,-0.016000,1.046000,126,127,126,idle
1764140822886,0,-0.092000,-0.016000,1.047000,126,127,126,idle
1764140822906,0,-0.093000,-0.016000,1.046000,126,127,127,idle
1764140822928,0,-0.092000,-0.016000,1.046000,126,127,127,idle
1764140822949,0,-0.092000,-0.015000,1.045000,126,127,127,idle
1764140822968,0,-0.092000,-0.016000,1.046000,126,127,127,idle
1764140822989,0,-0.093000,-0.016000,1.046000,126,127,127,idle
1764140823011,0,-0.093000,-0.016000,1.046000,126,127,127,idle
1764140823034,0,-0.094000,-0.016000,1.046000,126,127,127,idle
1764140823055,0,-0.096000,-0.016000,1.046000,126,127,127,idle
1764140823074,0,-0.095000,-0.016000,1.045000,126,127,127,idle
1764140823095,0,-0.094000,-0.016000,1.045000,126,127,127,idle
1764140823116,0,-0.094000,-0.015000,1.045000,126,127,127,idle
1764140823136,0,-0.093000,-0.015000,1.045000,126,127,127,idle
1764140823157,0,-0.092000,-0.015000,1.044000,126,127,127,idle
1764140823178,0,-0.091000,-0.016000,1.044000,126,127,127,idle
1764140823199,0,-0.092000,-0.016000,1.045000,126,127,127,idle
1764140823219,0,-0.092000,-0.016000,1.045000,126,127,127,idle
1764140823238,0,-0.093000,-0.015000,1.046000,126,127,127,idle
1764140823258,0,-0.094000,-0.014000,1.047000,126,127,127,idle
1764140823280,0,-0.094000,-0.014000,1.047000,126,127,127,idle
1764140823300,0,-0.094000,-0.014000,1.046000,126,127,127,idle
1764140823321,0,-0.095000,-0.015000,1.046000,126,127,127,idle
1764140823341,0,-0.094000,-0.015000,1.046000,126,127,127,idle
1764140823362,0,-0.093000,-0.015000,1.045000,126,127,127,idle
1764140823384,0,-0.092000,-0.015000,1.047000,126,127,127,idle
1764140823404,0,-0.092000,-0.015000,1.047000,126,127,127,idle
1764140823430,0,-0.091000,-0.015000,1.046000,126,127,127,idle
1764140823450,0,-0.092000,-0.015000,1.045000,126,127,127,idle
1764140823470,0,-0.094000,-0.015000,1.045000,126,127,127,idle
1764140823490,0,-0.095000,-0.015000,1.044000,126,127,126,idle
1764140823510,0,-0.095000,-0.014000,1.045000,126,127,126,idle
1764140823531,0,-0.095000,-0.014000,1.047000,126,127,127,idle
1764140823551,0,-0.094000,-0.016000,1.048000,126,127,127,idle
1764140823572,0,-0.092000,-0.016000,1.048000,126,127,127,idle
1764140823593,0,-0.092000,-0.016000,1.048000,126,127,127,idle
1764140823612,0,-0.092000,-0.016000,1.049000,126,127,127,idle
1764140823633,0,-0.094000,-0.017000,1.048000,126,127,127,idle
1764140823653,0,-0.095000,-0.015000,1.048000,126,127,127,idle
1764140823674,0,-0.096000,-0.015000,1.048000,126,127,127,idle
1764140823695,0,-0.096000,-0.015000,1.047000,126,127,127,idle
1764140823715,0,-0.095000,-0.014000,1.047000,126,127,127,idle
1764140823736,0,-0.094000,-0.014000,1.047000,126,127,126,idle
1764140823756,0,-0.093000,-0.015000,1.046000,126,127,126,idle
1764140823777,0,-0.093000,-0.014000,1.045000,126,127,126,idle
1764140823797,0,-0.094000,-0.014000,1.044000,126,127,127,idle
1764140823816,0,-0.093000,-0.014000,1.044000,126,127,127,idle
1764140823837,0,-0.093000,-0.014000,1.044000,126,127,127,idle
1764140823859,0,-0.092000,-0.014000,1.045000,126,127,127,idle
1764140823880,0,-0.091000,-0.014000,1.045000,126,127,127,idle
1764140823901,0,-0.090000,-0.015000,1.046000,126,127,127,idle
1764140823922,0,-0.091000,-0.015000,1.046000,126,127,127,idle
1764140823941,0,-0.091000,-0.015000,1.046000,126,127,127,idle
1764140823961,0,-0.092000,-0.015000,1.044000,126,127,127,idle
1764140823981,0,-0.093000,-0.015000,1.044000,126,127,127,idle
1764140824002,0,-0.094000,-0.015000,1.044000,126,127,127,idle
1764140824022,0,-0.094000,-0.015000,1.043000,126,127,127,idle
1764140824043,0,-0.093000,-0.016000,1.045000,126,127,126,idle
1764140824062,0,-0.092000,-0.016000,1.045000,126,127,126,idle
1764140824082,0,-0.092000,-0.015000,1.046000,126,127,127,idle
1764140824104,0,-0.092000,-0.014000,1.046000,126,127,127,idle
1764140824124,0,-0.092000,-0.013000,1.045000,126,127,127,idle
1764140824144,0,-0.091000,-0.014000,1.045000,126,127,127,idle
1764140824165,0,-0.092000,-0.014000,1.045000,126,127,127,idle
1764140824186,0,-0.092000,-0.015000,1.044000,126,127,127,idle
1764140824207,0,-0.091000,-0.015000,1.044000,126,127,127,idle
1764140824227,0,-0.093000,-0.017000,1.046000,126,127,127,idle
1764140824248,0,-0.093000,-0.016000,1.045000,126,127,127,idle
1764140824269,0,-0.092000,-0.015000,1.046000,126,127,127,idle
1764140824289,0,-0.092000,-0.015000,1.045000,126,127,127,idle
1764140824308,0,-0.093000,-0.013000,1.044000,126,127,127,idle
1764140824330,0,-0.093000,-0.014000,1.045000,126,127,126,idle
1764140824351,0,-0.093000,-0.015000,1.045000,126,127,126,idle
1764140824373,0,-0.093000,-0.014000,1.046000,126,127,127,idle
1764140824393,0,-0.092000,-0.015000,1.047000,126,127,127,idle
1764140824414,0,-0.091000,-0.016000,1.047000,126,127,127,idle
1764140824435,0,-0.092000,-0.016000,1.047000,126,127,127,idle
1764140824455,0,-0.093000,-0.016000,1.047000,126,127,127,idle
1764140824475,0,-0.093000,-0.016000,1.046000,126,127,127,idle
1764140824495,0,-0.093000,-0.016000,1.046000,126,127,126,idle
1764140824519,0,-0.092000,-0.015000,1.044000,126,127,127,idle
1764140824540,0,-0.092000,-0.017000,1.044000,126,127,127,idle
1764140824560,0,-0.092000,-0.017000,1.044000,126,127,127,idle
1764140824581,0,-0.093000,-0.017000,1.044000,126,127,127,idle
1764140824602,0,-0.093000,-0.017000,1.044000,126,127,127,idle
1764140824622,0,-0.092000,-0.016000,1.044000,126,127,127,idle
1764140824643,0,-0.092000,-0.015000,1.045000,126,127,127,idle
1764140824662,0,-0.092000,-0.014000,1.046000,126,127,127,idle
1764140824682,0,-0.092000,-0.015000,1.046000,126,127,127,idle
1764140824703,0,-0.092000,-0.016000,1.046000,126,127,127,idle
1764140824723,0,-0.092000,-0.017000,1.046000,126,127,126,idle
1764140824744,0,-0.093000,-0.017000,1.046000,126,127,126,idle
1764140824764,0,-0.092000,-0.017000,1.046000,126,127,126,idle
1764140824785,0,-0.093000,-0.016000,1.047000,126,127,126,idle
1764140824805,0,-0.093000,-0.015000,1.047000,126,127,126,idle
1764140824825,0,-0.094000,-0.013000,1.046000,126,127,126,idle
1764140824847,0,-0.093000,-0.014000,1.045000,126,127,126,idle
1764140824867,0,-0.093000,-0.013000,1.045000,126,127,127,idle
1764140824887,0,-0.093000,-0.013000,1.046000,126,127,127,idle
1764140824908,0,-0.093000,-0.014000,1.046000,126,127,127,idle
1764140824928,0,-0.093000,-0.016000,1.048000,126,127,126,idle
1764140824950,0,-0.095000,-0.016000,1.048000,126,127,126,idle
1764140824969,0,-0.094000,-0.016000,1.047000,126,127,126,idle
1764140824990,0,-0.094000,-0.015000,1.046000,126,127,127,idle
1764140825010,0,-0.094000,-0.015000,1.045000,126,127,126,idle
1764140825031,0,-0.093000,-0.015000,1.044000,126,127,127,idle
1764140825052,0,-0.093000,-0.016000,1.043000,126,127,127,idle
1764140825073,0,-0.093000,-0.016000,1.044000,126,127,127,idle
1764140825094,0,-0.093000,-0.017000,1.045000,126,127,127,idle
1764140825116,0,-0.094000,-0.017000,1.046000,126,127,127,idle
1764140825136,0,-0.094000,-0.017000,1.046000,126,127,126,idle
1764140825156,0,-0.094000,-0.017000,1.047000,126,127,126,idle
1764140825176,0,-0.094000,-0.017000,1.046000,126,127,126,idle
1764140825197,0,-0.094000,-0.018000,1.045000,126,127,127,idle
1764140825218,0,-0.094000,-0.018000,1.045000,126,127,127,idle
1764140825239,0,-0.094000,-0.018000,1.045000,126,127,127,idle
1764140825260,0,-0.093000,-0.016000,1.046000,126,127,127,idle
1764140825281,0,-0.092000,-0.015000,1.047000,126,127,127,idle
1764140825302,0,-0.092000,-0.015000,1.046000,126,127,127,idle
1764140825323,0,-0.092000,-0.015000,1.045000,126,127,127,idle
1764140825344,0,-0.093000,-0.015000,1.045000,126,127,127,idle
1764140825365,0,-0.093000,-0.016000,1.044000,126,127,127,idle
1764140825386,0,-0.093000,-0.015000,1.044000,126,127,127,idle
1764140825407,0,-0.093000,-0.016000,1.046000,126,127,126,idle
1764140825428,0,-0.093000,-0.016000,1.046000,126,127,126,idle
1764140825448,0,-0.091000,-0.016000,1.046000,126,127,127,idle
1764140825468,0,-0.091000,-0.016000,1.046000,126,127,126,idle
1764140825490,0,-0.091000,-0.016000,1.046000,126,127,127,idle
1764140825514,0,-0.091000,-0.015000,1.045000,126,127,127,idle
1764140825534,0,-0.091000,-0.015000,1.046000,126,127,126,idle
1764140825555,0,-0.091000,-0.014000,1.046000,126,127,126,idle
1764140825575,0,-0.092000,-0.015000,1.046000,126,127,126,idle
1764140825595,0,-0.092000,-0.014000,1.046000,126,127,126,idle
1764140825616,0,-0.093000,-0.015000,1.047000,126,127,127,idle
1764140825636,0,-0.093000,-0.015000,1.046000,126,127,127,idle
1764140825656,0,-0.092000,-0.014000,1.046000,126,127,127,idle
1764140825677,0,-0.092000,-0.014000,1.047000,126,127,127,idle
1764140825698,0,-0.092000,-0.014000,1.047000,126,127,127,idle
1764140825717,0,-0.092000,-0.016000,1.048000,126,127,127,idle
1764140825738,0,-0.093000,-0.017000,1.048000,126,127,127,idle
1764140825759,0,-0.094000,-0.016000,1.047000,126,127,127,idle
1764140825780,0,-0.093000,-0.015000,1.045000,126,127,127,idle
1764140825801,0,-0.092000,-0.015000,1.045000,126,127,127,idle
1764140825821,0,-0.093000,-0.015000,1.044000,126,127,127,idle
1764140825842,0,-0.093000,-0.016000,1.045000,126,127,127,idle
1764140825862,0,-0.093000,-0.016000,1.044000,126,127,127,idle
1764140825885,0,-0.093000,-0.016000,1.045000,126,127,127,idle
1764140825906,0,-0.094000,-0.014000,1.045000,126,127,127,idle
1764140825927,0,-0.095000,-0.014000,1.045000,126,127,127,idle
1764140825948,0,-0.094000,-0.015000,1.046000,126,127,127,idle
1764140825970,0,-0.093000,-0.015000,1.046000,126,127,127,idle
1764140825990,0,-0.094000,-0.015000,1.047000,126,127,127,idle
1764140826011,0,-0.093000,-0.015000,1.047000,126,127,127,idle
1764140826033,0,-0.093000,-0.016000,1.046000,126,127,127,idle
1764140826054,0,-0.092000,-0.015000,1.047000,126,127,127,idle
1764140826080,0,-0.094000,-0.015000,1.047000,126,127,127,idle
1764140826100,0,-0.093000,-0.016000,1.046000,126,127,127,idle
1764140826121,0,-0.094000,-0.015000,1.046000,126,127,127,idle
1764140826144,0,-0.095000,-0.014000,1.046000,126,127,127,idle
1764140826167,0,-0.094000,-0.015000,1.045000,126,127,127,idle
1764140826186,0,-0.093000,-0.015000,1.046000,126,127,127,idle
1764140826206,0,-0.093000,-0.016000,1.046000,126,127,126,idle
1764140826227,0,-0.093000,-0.016000,1.046000,126,127,127,idle
1764140826247,0,-0.093000,-0.017000,1.045000,126,127,127,idle
1764140826267,0,-0.093000,-0.014000,1.044000,126,127,127,idle
1764140826287,0,-0.093000,-0.014000,1.044000,126,127,127,idle
1764140826308,0,-0.093000,-0.013000,1.044000,126,127,127,idle
1764140826330,0,-0.092000,-0.014000,1.046000,126,127,127,idle
1764140826351,0,-0.093000,-0.014000,1.048000,126,127,127,idle
1764140826372,0,-0.093000,-0.014000,1.052000,126,127,127,idle
1764140826393,0,-0.094000,-0.015000,1.053000,126,127,127,idle
1764140826413,0,-0.093000,-0.015000,1.055000,126,127,127,idle
1764140826434,0,-0.093000,-0.014000,1.054000,126,127,127,idle
1764140826454,0,-0.093000,-0.015000,1.052000,126,127,127,idle
1764140826475,0,-0.092000,-0.014000,1.046000,126,127,127,idle
1764140826495,0,-0.091000,-0.013000,1.044000,126,127,127,idle
1764140826516,0,-0.092000,-0.013000,1.044000,126,127,127,idle
1764140826536,0,-0.093000,-0.014000,1.045000,126,127,127,idle
1764140826556,0,-0.093000,-0.015000,1.046000,126,127,127,idle
1764140826578,0,-0.093000,-0.016000,1.046000,126,127,127,idle
1764140826599,0,-0.094000,-0.016000,1.046000,126,127,127,idle
1764140826620,0,-0.094000,-0.016000,1.046000,126,127,127,idle
1764140826640,0,-0.092000,-0.015000,1.045000,126,127,127,idle
1764140826661,0,-0.092000,-0.015000,1.045000,126,127,127,idle
1764140826683,0,-0.091000,-0.015000,1.047000,126,127,127,idle
1764140826703,0,-0.091000,-0.015000,1.048000,126,127,126,idle
1764140826725,0,-0.091000,-0.015000,1.048000,126,127,126,idle
1764140826749,0,-0.092000,-0.014000,1.047000,126,127,127,idle
1764140826771,0,-0.093000,-0.013000,1.045000,126,127,127,idle
1764140826791,0,-0.094000,-0.013000,1.044000,126,127,127,idle
1764140826813,0,-0.094000,-0.014000,1.044000,126,127,127,idle
1764140826833,0,-0.093000,-0.014000,1.045000,126,127,127,idle
1764140826853,0,-0.093000,-0.014000,1.046000,126,127,127,idle
1764140826873,0,-0.092000,-0.015000,1.046000,126,127,127,idle
1764140826894,0,-0.092000,-0.015000,1.047000,126,127,127,idle
1764140826915,0,-0.092000,-0.015000,1.045000,126,127,126,idle
1764140826936,0,-0.093000,-0.015000,1.045000,126,127,126,idle
1764140826956,0,-0.093000,-0.015000,1.045000,126,127,126,idle
1764140826977,0,-0.093000,-0.015000,1.046000,126,127,127,idle
1764140826998,0,-0.094000,-0.015000,1.047000,126,127,127,idle
1764140827019,0,-0.092000,-0.016000,1.047000,126,127,127,idle
1764140827040,0,-0.092000,-0.016000,1.047000,126,127,127,idle
1764140827061,0,-0.092000,-0.017000,1.047000,126,127,127,idle
1764140827081,0,-0.092000,-0.017000,1.046000,126,127,127,idle
1764140827102,0,-0.091000,-0.015000,1.045000,126,127,127,idle
1764140827123,0,-0.092000,-0.014000,1.046000,126,127,126,idle
1764140827143,0,-0.093000,-0.013000,1.046000,126,127,127,idle
1764140827162,0,-0.093000,-0.014000,1.046000,126,127,126,idle
1764140827183,0,-0.094000,-0.014000,1.046000,126,127,126,idle
1764140827205,0,-0.095000,-0.014000,1.045000,126,127,126,idle
1764140827226,0,-0.095000,-0.014000,1.045000,126,127,126,idle
1764140827247,0,-0.095000,-0.014000,1.046000,126,127,126,idle
1764140827267,0,-0.095000,-0.014000,1.046000,126,127,126,idle
1764140827288,0,-0.094000,-0.016000,1.046000,126,127,126,idle
1764140827308,0,-0.093000,-0.016000,1.047000,126,127,126,idle
1764140827330,0,-0.092000,-0.016000,1.046000,126,127,127,idle
1764140827350,0,-0.090000,-0.016000,1.045000,126,127,127,idle
1764140827371,0,-0.090000,-0.015000,1.045000,126,127,127,idle
1764140827391,0,-0.091000,-0.015000,1.044000,126,127,127,idle
1764140827412,0,-0.093000,-0.015000,1.044000,126,127,127,idle
1764140827432,0,-0.094000,-0.016000,1.045000,126,127,127,idle
1764140827453,0,-0.096000,-0.016000,1.043000,126,127,127,idle
1764140827474,0,-0.097000,-0.016000,1.044000,126,127,126,idle
1764140827494,0,-0.096000,-0.016000,1.044000,126,127,126,idle
1764140827513,0,-0.095000,-0.016000,1.045000,126,127,126,idle
1764140827533,0,-0.093000,-0.016000,1.046000,126,127,126,idle
1764140827554,0,-0.092000,-0.015000,1.046000,126,127,126,idle
1764140827574,0,-0.091000,-0.015000,1.046000,126,127,127,idle
1764140827595,0,-0.090000,-0.015000,1.046000,126,127,127,idle
1764140827615,0,-0.091000,-0.015000,1.045000,126,127,127,idle
1764140827636,0,-0.092000,-0.015000,1.044000,126,127,127,idle
1764140827656,0,-0.093000,-0.015000,1.045000,126,127,127,idle
1764140827676,0,-0.094000,-0.015000,1.044000,126,127,127,idle
1764140847174,0,-0.098000,-0.016000,1.045000,126,127,127,idle
1764140847194,0,-0.098000,-0.016000,1.048000,126,127,127,idle
1764140847214,0,-0.096000,-0.016000,1.045000,126,127,127,idle
1764140847235,0,-0.095000,-0.017000,1.045000,126,127,127,idle
1764140847256,0,-0.094000,-0.018000,1.049000,126,127,127,idle
1764140847277,0,-0.094000,-0.018000,1.050000,126,127,127,idle
1764140847298,0,-0.095000,-0.019000,1.049000,126,127,127,idle
1764140847320,0,-0.096000,-0.017000,1.049000,126,127,126,idle
1764140847342,0,-0.096000,-0.016000,1.045000,126,127,126,idle
1764140847363,0,-0.097000,-0.016000,1.041000,126,127,126,idle
1764140847384,0,-0.098000,-0.016000,1.042000,126,127,126,idle
1764140847405,0,-0.098000,-0.017000,1.043000,126,127,126,idle
1764140847425,0,-0.096000,-0.018000,1.042000,126,127,127,idle
1764140847446,0,-0.094000,-0.018000,1.042000,126,127,127,idle
1764140847466,0,-0.093000,-0.018000,1.040000,126,127,127,idle
1764140847486,0,-0.093000,-0.017000,1.042000,126,127,127,idle
1764140847508,0,-0.097000,-0.018000,1.051000,126,127,127,idle
1764140847528,0,-0.097000,-0.018000,1.051000,127,127,127,idle
1764140847550,0,-0.096000,-0.018000,1.053000,127,127,127,idle
1764140847569,0,-0.094000,-0.018000,1.051000,127,127,127,idle
1764140847591,0,-0.092000,-0.017000,1.045000,126,127,127,idle
1764140847611,0,-0.090000,-0.017000,1.042000,126,127,127,idle
1764140847631,0,-0.091000,-0.017000,1.042000,126,127,127,idle
1764140847652,0,-0.093000,-0.016000,1.041000,126,127,127,idle
1764140847672,0,-0.096000,-0.016000,1.041000,126,127,127,idle
1764140847693,0,-0.097000,-0.016000,1.043000,126,127,127,idle
1764140847714,0,-0.097000,-0.016000,1.044000,126,127,127,idle
1764140847733,0,-0.094000,-0.017000,1.046000,126,127,127,idle
1764140847754,0,-0.093000,-0.018000,1.047000,126,127,127,idle
1764140847774,0,-0.093000,-0.017000,1.047000,126,127,127,idle
1764140847796,0,-0.093000,-0.017000,1.047000,126,127,127,idle
1764140847816,0,-0.093000,-0.016000,1.046000,126,127,127,idle
1764140847838,0,-0.094000,-0.015000,1.045000,126,127,127,idle
1764140847859,0,-0.094000,-0.014000,1.045000,126,127,127,idle
1764140847879,0,-0.094000,-0.015000,1.045000,126,127,127,idle
1764140847900,0,-0.095000,-0.015000,1.046000,126,127,127,idle
1764140847920,0,-0.095000,-0.016000,1.047000,126,127,127,idle
1764140847941,0,-0.094000,-0.017000,1.046000,126,127,127,idle
1764140847961,0,-0.093000,-0.017000,1.047000,126,127,127,idle
1764140847982,0,-0.094000,-0.018000,1.046000,126,127,126,idle
1764140848003,0,-0.094000,-0.018000,1.046000,126,127,126,idle
1764140848025,0,-0.095000,-0.019000,1.046000,126,127,126,idle
1764140848045,0,-0.097000,-0.018000,1.046000,126,127,127,idle
1764140848066,0,-0.097000,-0.018000,1.045000,126,127,127,idle
1764140848087,0,-0.097000,-0.016000,1.044000,126,127,127,idle
1764140848106,0,-0.096000,-0.016000,1.046000,126,127,127,idle
1764140848127,0,-0.095000,-0.017000,1.047000,126,127,127,idle
1764140848148,0,-0.094000,-0.017000,1.048000,126,127,127,idle
1764140848168,0,-0.093000,-0.017000,1.049000,126,127,127,idle
1764140848187,0,-0.092000,-0.018000,1.049000,126,127,127,idle
1764140848208,0,-0.093000,-0.018000,1.047000,126,127,127,idle
1764140848228,0,-0.094000,-0.016000,1.047000,126,127,127,idle
1764140848248,0,-0.094000,-0.016000,1.046000,126,127,127,idle
1764140848268,0,-0.095000,-0.016000,1.047000,126,127,127,idle
1764140848289,0,-0.094000,-0.016000,1.049000,126,127,126,idle
1764140848310,0,-0.092000,-0.015000,1.047000,126,127,126,idle
1764140848330,0,-0.091000,-0.015000,1.046000,126,127,126,idle
1764140848351,0,-0.092000,-0.016000,1.047000,126,127,126,idle
1764140848371,0,-0.092000,-0.017000,1.047000,126,127,126,idle
1764140848392,0,-0.092000,-0.017000,1.045000,126,127,126,idle
1764140848412,0,-0.093000,-0.017000,1.046000,126,127,127,idle
1764140848432,0,-0.094000,-0.017000,1.046000,126,127,126,idle
1764140848453,0,-0.094000,-0.016000,1.047000,126,127,126,idle
1764140848473,0,-0.093000,-0.016000,1.047000,126,127,127,idle
1764140848494,0,-0.094000,-0.017000,1.046000,126,127,127,idle
1764140848514,0,-0.094000,-0.018000,1.047000,126,127,127,idle
1764140848535,0,-0.094000,-0.018000,1.045000,126,127,127,idle
1764140848555,0,-0.095000,-0.018000,1.045000,126,127,127,idle
1764140848576,0,-0.095000,-0.016000,1.045000,126,127,127,idle
1764140848598,0,-0.095000,-0.015000,1.046000,126,127,126,idle
1764140848619,0,-0.095000,-0.016000,1.046000,126,127,126,idle
1764140848640,0,-0.094000,-0.016000,1.047000,126,127,126,idle
1764140848661,0,-0.094000,-0.016000,1.047000,126,127,126,idle
1764140848682,0,-0.093000,-0.016000,1.047000,126,127,126,idle
1764140848703,0,-0.093000,-0.017000,1.047000,126,127,127,idle
1764140848724,0,-0.093000,-0.017000,1.047000,126,127,127,idle
1764140848745,0,-0.095000,-0.017000,1.046000,126,127,127,idle
1764140848766,0,-0.096000,-0.017000,1.047000,126,127,127,idle
1764140848788,0,-0.096000,-0.017000,1.047000,126,127,126,idle
1764140848810,0,-0.096000,-0.016000,1.046000,126,127,126,idle
1764140848830,0,-0.095000,-0.016000,1.046000,126,127,126,idle
1764140848851,0,-0.093000,-0.017000,1.047000,126,127,127,idle
1764140848871,0,-0.093000,-0.017000,1.046000,126,127,127,idle
1764140848891,0,-0.094000,-0.017000,1.046000,126,127,127,idle
1764140848910,0,-0.095000,-0.018000,1.046000,126,127,127,idle
1764140848931,0,-0.096000,-0.017000,1.046000,126,127,127,idle
1764140848951,0,-0.095000,-0.017000,1.047000,126,127,127,idle
1764140848972,0,-0.094000,-0.017000,1.047000,126,127,127,idle
1764140848994,0,-0.094000,-0.017000,1.046000,126,127,127,idle
1764140849015,0,-0.093000,-0.017000,1.047000,126,127,127,idle
1764140849037,0,-0.094000,-0.016000,1.045000,126,127,127,idle
1764140849058,0,-0.095000,-0.016000,1.044000,126,127,127,idle
1764140849078,0,-0.095000,-0.017000,1.045000,126,127,127,idle
1764140849098,0,-0.095000,-0.017000,1.045000,126,127,127,idle
1764140849118,0,-0.095000,-0.016000,1.046000,126,127,127,idle
1764140849137,0,-0.094000,-0.016000,1.046000,126,127,127,idle
1764140849158,0,-0.094000,-0.017000,1.046000,126,127,127,idle
1764140849178,0,-0.094000,-0.018000,1.046000,126,127,127,idle
1764140849198,0,-0.093000,-0.018000,1.046000,126,127,127,idle
1764140849219,0,-0.096000,-0.017000,1.045000,126,127,127,idle
1764140849239,0,-0.095000,-0.016000,1.045000,126,127,127,idle
1764140849260,0,-0.095000,-0.016000,1.045000,126,127,127,idle
1764140849282,0,-0.095000,-0.015000,1.046000,126,127,127,idle
1764140849302,0,-0.094000,-0.016000,1.047000,126,127,127,idle
1764140849323,0,-0.094000,-0.017000,1.048000,126,127,127,idle
1764140849344,0,-0.094000,-0.017000,1.046000,126,127,127,idle
1764140849363,0,-0.095000,-0.017000,1.046000,126,127,127,idle
1764140849383,0,-0.094000,-0.016000,1.046000,126,127,127,idle
1764140849404,0,-0.095000,-0.016000,1.046000,126,127,127,idle
1764140849425,0,-0.096000,-0.016000,1.047000,126,127,127,idle
1764140849445,0,-0.095000,-0.016000,1.047000,126,127,127,idle
1764140849465,0,-0.094000,-0.018000,1.046000,126,127,126,idle
1764140849486,0,-0.095000,-0.019000,1.046000,126,127,127,idle
1764140849507,0,-0.094000,-0.018000,1.045000,126,127,127,idle
1764140849527,0,-0.095000,-0.018000,1.046000,126,127,127,idle
1764140849548,0,-0.095000,-0.017000,1.046000,126,127,127,idle
1764140849570,0,-0.096000,-0.016000,1.047000,126,127,127,idle
1764140849590,0,-0.095000,-0.015000,1.046000,126,127,126,idle
1764140849611,0,-0.096000,-0.015000,1.047000,126,127,126,idle
1764140849631,0,-0.095000,-0.016000,1.047000,126,127,126,idle
1764140849652,0,-0.096000,-0.017000,1.046000,126,127,126,idle
1764140849672,0,-0.095000,-0.017000,1.046000,126,127,126,idle
1764140849693,0,-0.094000,-0.018000,1.047000,126,127,127,idle
1764140849713,0,-0.094000,-0.017000,1.047000,126,127,127,idle
1764140849734,0,-0.094000,-0.017000,1.047000,126,127,127,idle
1764140849756,0,-0.094000,-0.017000,1.047000,126,127,127,idle
1764140849776,0,-0.095000,-0.016000,1.046000,126,127,127,idle
1764140849797,0,-0.095000,-0.016000,1.046000,126,127,127,idle
1764140849817,0,-0.095000,-0.017000,1.046000,126,127,127,idle
1764140849838,0,-0.096000,-0.017000,1.047000,126,127,127,idle
1764140849858,0,-0.095000,-0.017000,1.046000,126,127,127,idle
1764140849880,0,-0.095000,-0.018000,1.046000,126,127,127,idle
1764140849901,0,-0.093000,-0.017000,1.045000,126,127,127,idle
1764140849921,0,-0.093000,-0.017000,1.044000,126,127,127,idle
1764140849940,0,-0.093000,-0.016000,1.045000,126,127,127,idle
1764140849962,0,-0.092000,-0.016000,1.046000,126,127,127,idle
1764140849984,0,-0.092000,-0.016000,1.046000,126,127,127,idle
1764140850007,0,-0.093000,-0.016000,1.046000,126,127,127,idle
1764140850026,0,-0.093000,-0.016000,1.047000,126,127,127,idle
1764140850049,0,-0.093000,-0.017000,1.046000,126,127,127,idle
1764140850071,0,-0.093000,-0.016000,1.045000,126,127,127,idle
1764140850092,0,-0.094000,-0.017000,1.044000,126,127,127,idle
1764140850112,0,-0.095000,-0.018000,1.045000,126,127,127,idle
1764140850133,0,-0.095000,-0.017000,1.045000,126,127,127,idle
1764140850153,0,-0.095000,-0.017000,1.045000,126,127,127,idle
1764140850174,0,-0.094000,-0.017000,1.046000,126,127,127,idle
1764140850194,0,-0.094000,-0.018000,1.045000,126,127,127,idle
1764140850215,0,-0.093000,-0.018000,1.045000,126,127,127,idle
1764140850235,0,-0.093000,-0.018000,1.045000,126,127,127,idle
1764140850256,0,-0.094000,-0.018000,1.045000,126,127,126,idle
1764140850276,0,-0.093000,-0.017000,1.045000,126,127,127,idle
1764140850297,0,-0.093000,-0.017000,1.046000,126,127,127,idle
1764140850317,0,-0.093000,-0.017000,1.046000,126,127,127,idle
1764140850338,0,-0.094000,-0.017000,1.046000,126,127,127,idle
1764140850358,0,-0.094000,-0.017000,1.047000,126,127,127,idle
1764140850379,0,-0.094000,-0.016000,1.046000,126,127,127,idle
1764140850400,0,-0.094000,-0.016000,1.045000,126,127,127,idle
1764140850421,0,-0.094000,-0.017000,1.046000,126,127,127,idle
1764140850443,0,-0.094000,-0.017000,1.046000,126,127,127,idle
1764140850466,0,-0.094000,-0.016000,1.046000,126,127,127,idle
1764140850485,0,-0.095000,-0.016000,1.047000,126,127,127,idle
1764140850506,0,-0.095000,-0.016000,1.046000,126,127,127,idle
1764140850528,0,-0.095000,-0.016000,1.045000,126,127,127,idle
1764140850548,0,-0.095000,-0.016000,1.046000,126,127,127,idle
1764140850568,0,-0.095000,-0.016000,1.046000,126,127,127,idle
1764140850589,0,-0.094000,-0.016000,1.046000,126,127,127,idle
1764140850610,0,-0.095000,-0.015000,1.047000,126,127,127,idle
1764140850632,0,-0.094000,-0.016000,1.046000,126,127,127,idle
1764140850654,0,-0.096000,-0.015000,1.046000,126,127,127,idle
1764140850673,0,-0.096000,-0.016000,1.047000,126,127,127,idle
1764140850694,0,-0.096000,-0.016000,1.046000,126,127,127,idle
1764140850715,0,-0.096000,-0.016000,1.045000,126,127,127,idle
1764140850735,0,-0.096000,-0.016000,1.046000,126,127,127,idle
1764140850755,0,-0.094000,-0.015000,1.045000,126,127,127,idle
1764140850775,0,-0.095000,-0.015000,1.044000,126,127,127,idle
1764140850796,0,-0.094000,-0.016000,1.046000,126,127,127,idle
1764140850818,0,-0.094000,-0.017000,1.045000,126,127,127,idle
1764140850838,0,-0.094000,-0.017000,1.046000,126,127,127,idle
1764140850859,0,-0.094000,-0.018000,1.046000,126,127,127,idle
1764140850881,0,-0.094000,-0.018000,1.046000,126,127,127,idle
1764140850901,0,-0.095000,-0.018000,1.047000,126,127,127,idle
1764140850921,0,-0.095000,-0.017000,1.048000,126,127,127,idle
1764140850941,0,-0.095000,-0.016000,1.047000,126,127,127,idle
1764140850961,0,-0.095000,-0.017000,1.047000,126,127,126,idle
1764140850982,0,-0.095000,-0.017000,1.047000,126,127,127,idle
1764140851001,0,-0.094000,-0.017000,1.046000,126,127,126,idle
1764140851022,0,-0.094000,-0.017000,1.046000,126,127,126,idle
1764140851042,0,-0.094000,-0.017000,1.046000,126,127,126,idle
1764140851062,0,-0.095000,-0.018000,1.047000,126,127,127,idle
1764140851082,0,-0.096000,-0.018000,1.046000,126,127,127,idle
1764140851103,0,-0.097000,-0.018000,1.045000,126,127,127,idle
1764140851124,0,-0.097000,-0.017000,1.045000,126,127,127,idle
1764140851144,0,-0.097000,-0.017000,1.046000,126,127,127,idle
1764140851165,0,-0.097000,-0.016000,1.046000,126,127,127,idle
1764140851185,0,-0.096000,-0.016000,1.047000,126,127,127,idle
1764140851206,0,-0.095000,-0.017000,1.047000,126,127,127,idle
1764140851226,0,-0.094000,-0.016000,1.046000,126,127,127,idle
1764140851246,0,-0.093000,-0.016000,1.046000,126,127,127,idle
1764140851267,0,-0.092000,-0.016000,1.045000,126,127,127,idle
1764140851287,0,-0.092000,-0.016000,1.045000,126,127,127,idle
1764140851308,0,-0.092000,-0.015000,1.045000,126,127,127,idle
1764140851333,0,-0.092000,-0.017000,1.046000,126,127,127,idle
1764140851355,0,-0.094000,-0.017000,1.045000,126,127,127,idle
1764140851376,0,-0.094000,-0.016000,1.045000,126,127,127,idle
1764140851396,0,-0.094000,-0.016000,1.046000,126,127,127,idle
1764140851416,0,-0.095000,-0.016000,1.046000,126,127,127,idle
1764140851437,0,-0.094000,-0.017000,1.046000,126,127,127,idle
1764140851457,0,-0.094000,-0.017000,1.045000,126,127,127,idle
1764140851478,0,-0.094000,-0.018000,1.044000,126,127,127,idle
1764140851497,0,-0.095000,-0.017000,1.044000,126,127,127,idle
1764140851517,0,-0.095000,-0.017000,1.044000,126,127,127,idle
1764140851538,0,-0.096000,-0.018000,1.045000,126,127,127,idle
1764140851558,0,-0.096000,-0.018000,1.046000,126,127,127,idle
1764140851579,0,-0.095000,-0.018000,1.047000,126,127,127,idle
1764140851600,0,-0.095000,-0.018000,1.047000,126,127,126,idle
1764140851622,0,-0.094000,-0.018000,1.047000,126,127,126,idle
1764140851643,0,-0.095000,-0.018000,1.047000,126,127,126,idle
1764140851663,0,-0.095000,-0.018000,1.047000,126,127,126,idle
1764140851682,0,-0.095000,-0.017000,1.046000,126,127,126,idle
1764140851703,0,-0.096000,-0.017000,1.047000,126,127,126,idle
1764140851723,0,-0.097000,-0.016000,1.047000,126,127,126,idle
1764140851743,0,-0.096000,-0.017000,1.046000,126,127,126,idle
1764140851763,0,-0.097000,-0.016000,1.046000,126,127,126,idle
1764140851784,0,-0.098000,-0.016000,1.047000,126,127,126,idle
1764140851804,0,-0.096000,-0.018000,1.045000,126,127,126,idle
1764140851824,0,-0.097000,-0.017000,1.045000,126,127,126,idle
1764140851844,0,-0.096000,-0.017000,1.045000,126,127,126,idle
1764140851865,0,-0.095000,-0.016000,1.045000,126,127,126,idle
1764140851887,0,-0.094000,-0.016000,1.045000,126,127,126,idle
1764140851907,0,-0.094000,-0.016000,1.045000,126,127,126,idle
1764140851928,0,-0.093000,-0.017000,1.046000,126,127,126,idle
1764140851948,0,-0.094000,-0.018000,1.046000,126,127,126,idle
1764140851968,0,-0.094000,-0.019000,1.047000,126,127,127,idle
1764140851988,0,-0.095000,-0.019000,1.047000,126,127,126,idle
1764140852009,0,-0.095000,-0.019000,1.046000,126,127,127,idle
1764140852029,0,-0.096000,-0.019000,1.046000,126,127,127,idle
1764140852050,0,-0.096000,-0.018000,1.046000,126,127,127,idle
1764140852070,0,-0.096000,-0.017000,1.045000,126,127,127,idle
1764140852090,0,-0.094000,-0.016000,1.047000,126,127,127,idle
1764140852110,0,-0.093000,-0.016000,1.046000,126,127,127,idle
1764140852129,0,-0.093000,-0.016000,1.047000,126,127,127,idle
1764140852151,0,-0.093000,-0.017000,1.047000,126,127,127,idle
1764140852173,0,-0.093000,-0.019000,1.047000,126,127,127,idle
1764140852193,0,-0.093000,-0.018000,1.046000,126,127,127,idle
1764140852214,0,-0.093000,-0.018000,1.046000,126,127,127,idle
1764140852234,0,-0.093000,-0.018000,1.046000,126,127,126,idle
1764140852255,0,-0.094000,-0.018000,1.046000,126,127,126,idle
1764140852275,0,-0.093000,-0.017000,1.046000,126,127,126,idle
1764140852296,0,-0.093000,-0.016000,1.045000,126,127,126,idle
1764140852317,0,-0.093000,-0.015000,1.044000,126,127,126,idle
1764140852339,0,-0.094000,-0.016000,1.045000,126,127,126,idle
1764140852359,0,-0.096000,-0.016000,1.046000,126,127,127,idle
1764140852379,0,-0.096000,-0.016000,1.047000,126,127,127,idle
1764140852400,0,-0.096000,-0.017000,1.048000,126,127,127,idle
1764140852421,0,-0.095000,-0.017000,1.048000,126,127,127,idle
1764140852442,0,-0.094000,-0.017000,1.049000,126,127,127,idle
1764140852462,0,-0.092000,-0.017000,1.048000,126,127,126,idle
1764140852483,0,-0.092000,-0.018000,1.047000,126,127,126,idle
1764140852503,0,-0.092000,-0.019000,1.046000,126,127,126,idle
1764140852522,0,-0.093000,-0.018000,1.045000,126,127,126,idle
1764140852543,0,-0.096000,-0.017000,1.044000,126,127,126,idle
1764140852563,0,-0.096000,-0.016000,1.044000,126,127,126,idle
1764140852583,0,-0.096000,-0.016000,1.044000,126,127,126,idle
1764140852605,0,-0.097000,-0.017000,1.046000,126,127,126,idle
1764140852625,0,-0.095000,-0.018000,1.046000,126,127,126,idle
1764140852645,0,-0.094000,-0.018000,1.046000,126,127,126,idle
1764140852666,0,-0.094000,-0.018000,1.046000,126,127,126,idle
1764140852688,0,-0.093000,-0.017000,1.044000,126,127,126,idle
1764140852708,0,-0.095000,-0.017000,1.044000,126,127,126,idle
1764140852728,0,-0.096000,-0.016000,1.045000,126,127,127,idle
1764140852751,0,-0.096000,-0.016000,1.044000,126,127,126,idle
1764140852773,0,-0.095000,-0.017000,1.045000,126,127,127,idle
1764140852794,0,-0.093000,-0.018000,1.046000,126,127,126,idle
1764140852813,0,-0.093000,-0.018000,1.046000,126,127,127,idle
1764140852834,0,-0.094000,-0.018000,1.046000,126,127,127,idle
1764140852855,0,-0.095000,-0.018000,1.046000,126,127,126,idle
1764140852875,0,-0.097000,-0.018000,1.046000,126,127,127,idle
1764140852897,0,-0.097000,-0.017000,1.047000,126,127,127,idle
1764140852918,0,-0.098000,-0.017000,1.047000,126,127,127,idle
1764140852939,0,-0.096000,-0.017000,1.047000,126,127,126,idle
1764140852959,0,-0.096000,-0.017000,1.046000,126,127,127,idle
1764140852980,0,-0.094000,-0.017000,1.046000,126,127,126,idle
1764140853000,0,-0.094000,-0.018000,1.044000,126,127,126,idle
1764140853024,0,-0.093000,-0.018000,1.043000,126,127,126,idle
1764140853046,0,-0.093000,-0.017000,1.044000,126,127,127,idle
1764140853067,0,-0.094000,-0.016000,1.043000,126,127,127,idle
1764140853088,0,-0.094000,-0.016000,1.044000,126,127,127,idle
1764140853108,0,-0.094000,-0.016000,1.044000,126,127,127,idle
1764140853127,0,-0.094000,-0.017000,1.044000,126,127,126,idle
1764140853148,0,-0.094000,-0.017000,1.044000,126,127,127,idle
1764140853168,0,-0.094000,-0.018000,1.044000,126,127,127,idle
1764140854057,0,-0.096000,-0.015000,1.040000,126,127,127,idle
1764140854077,0,-0.095000,-0.016000,1.044000,126,127,127,idle
1764140854098,0,-0.095000,-0.016000,1.045000,126,127,127,idle
1764140854118,0,-0.094000,-0.016000,1.043000,126,127,127,idle
1764140854140,0,-0.095000,-0.017000,1.046000,126,127,127,idle
1764140854161,0,-0.092000,-0.018000,1.048000,126,127,127,idle
1764140854180,0,-0.091000,-0.017000,1.047000,126,127,127,idle
1764140854200,0,-0.091000,-0.017000,1.047000,126,127,127,idle
1764140854222,0,-0.094000,-0.014000,1.046000,126,127,127,idle
1764140854241,0,-0.094000,-0.013000,1.045000,126,127,127,idle
1764140854262,0,-0.094000,-0.014000,1.046000,126,127,127,idle
1764140854283,0,-0.095000,-0.015000,1.046000,126,127,127,idle
1764140854305,0,-0.094000,-0.016000,1.046000,126,127,127,idle
1764140854325,0,-0.093000,-0.018000,1.047000,126,127,127,idle
1764140854344,0,-0.094000,-0.018000,1.046000,126,127,127,idle
1764140854368,0,-0.094000,-0.017000,1.045000,126,127,127,idle
1764140854388,0,-0.095000,-0.017000,1.046000,126,127,127,idle
1764140854409,0,-0.095000,-0.017000,1.045000,126,127,127,idle
1764140854430,0,-0.095000,-0.016000,1.046000,126,127,127,idle
1764140854450,0,-0.095000,-0.016000,1.046000,126,127,127,idle
1764140854472,0,-0.094000,-0.017000,1.046000,126,127,127,idle
1764140854493,0,-0.094000,-0.015000,1.046000,126,127,126,idle
1764140854513,0,-0.094000,-0.016000,1.045000,126,127,126,idle
1764140854534,0,-0.094000,-0.017000,1.043000,126,127,126,idle
1764140854554,0,-0.093000,-0.017000,1.045000,126,127,126,idle
1764140854575,0,-0.094000,-0.017000,1.045000,126,127,126,idle
1764140854595,0,-0.094000,-0.017000,1.045000,126,127,126,idle
1764140854616,0,-0.094000,-0.017000,1.045000,126,127,127,idle
1764140854637,0,-0.095000,-0.017000,1.045000,126,127,127,idle
1764140854657,0,-0.094000,-0.017000,1.044000,126,127,127,idle
1764140854677,0,-0.093000,-0.017000,1.045000,126,127,127,idle
1764140854697,0,-0.092000,-0.017000,1.046000,126,127,127,idle
1764140854717,0,-0.092000,-0.018000,1.047000,126,127,127,idle
1764140854739,0,-0.092000,-0.017000,1.048000,126,127,127,idle
1764140854761,0,-0.094000,-0.015000,1.047000,126,127,127,idle
1764140854782,0,-0.094000,-0.014000,1.046000,126,127,127,idle
1764140854802,0,-0.095000,-0.015000,1.046000,126,127,127,idle
1764140854823,0,-0.096000,-0.015000,1.046000,126,127,126,idle
1764140854846,0,-0.094000,-0.017000,1.045000,126,127,126,idle
1764140854868,0,-0.094000,-0.018000,1.046000,126,127,126,idle
1764140854890,0,-0.094000,-0.018000,1.046000,126,127,126,idle
1764140854911,0,-0.091000,-0.018000,1.045000,126,127,127,idle
1764140854931,0,-0.092000,-0.017000,1.045000,126,127,127,idle
1764140854952,0,-0.093000,-0.018000,1.046000,126,127,127,idle
1764140854973,0,-0.094000,-0.018000,1.047000,126,127,127,idle
1764140854992,0,-0.094000,-0.017000,1.047000,126,127,127,idle
1764140855013,0,-0.095000,-0.017000,1.046000,126,127,127,idle
1764140855034,0,-0.095000,-0.016000,1.045000,126,127,127,idle
1764140855055,0,-0.095000,-0.016000,1.044000,126,127,127,idle
1764140855075,0,-0.094000,-0.016000,1.044000,126,127,127,idle
1764140855096,0,-0.094000,-0.017000,1.044000,126,127,127,idle
1764140855117,0,-0.094000,-0.018000,1.045000,126,127,127,idle
1764140855137,0,-0.094000,-0.018000,1.046000,126,127,127,idle
1764140855158,0,-0.094000,-0.018000,1.046000,126,127,127,idle
1764140855179,0,-0.097000,-0.018000,1.046000,126,127,127,idle
1764140855200,0,-0.096000,-0.017000,1.047000,126,127,127,idle
1764140855220,0,-0.095000,-0.017000,1.046000,126,127,127,idle
1764140855240,0,-0.094000,-0.018000,1.045000,126,127,127,idle
1764140855261,0,-0.093000,-0.018000,1.045000,126,127,127,idle
1764140855281,0,-0.092000,-0.018000,1.045000,126,127,127,idle
1764140855302,0,-0.093000,-0.018000,1.045000,126,127,127,idle
1764140855322,0,-0.095000,-0.017000,1.045000,126,127,127,idle
1764140855342,0,-0.095000,-0.017000,1.045000,126,127,127,idle
1764140855364,0,-0.095000,-0.019000,1.045000,126,127,127,idle
1764140855385,0,-0.094000,-0.018000,1.045000,126,127,127,idle
1764140855406,0,-0.093000,-0.019000,1.045000,126,127,127,idle
1764140855426,0,-0.093000,-0.019000,1.046000,126,127,127,idle
1764140855447,0,-0.092000,-0.017000,1.045000,126,127,127,idle
1764140855468,0,-0.092000,-0.017000,1.045000,126,127,127,idle
1764140855488,0,-0.093000,-0.018000,1.045000,126,127,127,idle
1764140855507,0,-0.095000,-0.017000,1.045000,126,127,127,idle
1764140855528,0,-0.095000,-0.015000,1.044000,126,127,127,idle
1764140855548,0,-0.095000,-0.016000,1.045000,126,127,127,idle
1764140855568,0,-0.096000,-0.015000,1.045000,126,127,127,idle
1764140855588,0,-0.094000,-0.016000,1.045000,126,127,127,idle
1764140855609,0,-0.094000,-0.017000,1.045000,126,127,127,idle
1764140855629,0,-0.093000,-0.018000,1.045000,126,127,127,idle
1764140855650,0,-0.093000,-0.019000,1.046000,126,127,127,idle
1764140855669,0,-0.093000,-0.019000,1.046000,126,127,127,idle
1764140855690,0,-0.094000,-0.018000,1.045000,126,127,127,idle
1764140855712,0,-0.095000,-0.018000,1.045000,126,127,127,idle
1764140855732,0,-0.095000,-0.018000,1.046000,126,127,127,idle
1764140855753,0,-0.095000,-0.018000,1.045000,126,127,127,idle
1764140855773,0,-0.095000,-0.017000,1.046000,126,127,127,idle
1764140855794,0,-0.094000,-0.017000,1.046000,126,127,127,idle
1764140855815,0,-0.093000,-0.017000,1.046000,126,127,127,idle
1764140855834,0,-0.093000,-0.016000,1.046000,126,127,127,idle
1764140855855,0,-0.093000,-0.018000,1.045000,126,127,127,idle
1764140855875,0,-0.094000,-0.018000,1.045000,126,127,127,idle
1764140855896,0,-0.093000,-0.018000,1.046000,126,127,127,idle
1764140855917,0,-0.093000,-0.017000,1.046000,126,127,127,idle
1764140855938,0,-0.094000,-0.017000,1.045000,126,127,127,idle
1764140855959,0,-0.093000,-0.017000,1.046000,126,127,127,idle
1764140855979,0,-0.093000,-0.017000,1.045000,126,127,127,idle
1764140856000,0,-0.093000,-0.016000,1.046000,126,127,126,idle
1764140856021,0,-0.093000,-0.016000,1.046000,126,127,126,idle
1764140856041,0,-0.093000,-0.016000,1.046000,126,127,126,idle
1764140856062,0,-0.092000,-0.016000,1.047000,126,127,126,idle
1764140856082,0,-0.092000,-0.016000,1.047000,126,127,126,idle
1764140856102,0,-0.092000,-0.017000,1.045000,126,127,126,idle
1764140856123,0,-0.092000,-0.018000,1.045000,126,127,126,idle
1764140856145,0,-0.092000,-0.018000,1.045000,126,127,126,idle
1764140856165,0,-0.092000,-0.017000,1.046000,126,127,126,idle
1764140856188,0,-0.093000,-0.017000,1.045000,126,127,126,idle
1764140856209,0,-0.092000,-0.016000,1.045000,126,127,127,idle
1764140856229,0,-0.093000,-0.016000,1.046000,126,127,127,idle
1764140856250,0,-0.093000,-0.016000,1.045000,126,127,127,idle
1764140856270,0,-0.094000,-0.016000,1.044000,126,127,127,idle
1764140856291,0,-0.095000,-0.017000,1.045000,126,127,127,idle
1764140856311,0,-0.094000,-0.017000,1.045000,126,127,127,idle
1764140856332,0,-0.094000,-0.017000,1.045000,126,127,127,idle
1764140856353,0,-0.094000,-0.017000,1.045000,126,127,126,idle
1764140856373,0,-0.095000,-0.017000,1.045000,126,127,126,idle
1764140856394,0,-0.095000,-0.017000,1.045000,126,127,126,idle
1764140856414,0,-0.095000,-0.017000,1.045000,126,127,127,idle
1764140856435,0,-0.096000,-0.018000,1.045000,126,127,127,idle
1764140856456,0,-0.096000,-0.018000,1.045000,126,127,127,idle
1764140856476,0,-0.095000,-0.018000,1.046000,126,127,127,idle
1764140856498,0,-0.094000,-0.018000,1.047000,126,127,127,idle
1764140856519,0,-0.094000,-0.017000,1.048000,126,127,127,idle
1764140856539,0,-0.094000,-0.016000,1.048000,126,127,127,idle
1764140856561,0,-0.094000,-0.016000,1.047000,126,127,127,idle
1764140856581,0,-0.094000,-0.017000,1.047000,126,127,127,idle
1764140856602,0,-0.094000,-0.017000,1.046000,126,127,127,idle
1764140856623,0,-0.095000,-0.017000,1.046000,126,127,127,idle
1764140856643,0,-0.094000,-0.017000,1.045000,126,127,127,idle
1764140856664,0,-0.095000,-0.017000,1.047000,126,127,127,idle
1764140856685,0,-0.094000,-0.016000,1.047000,126,127,127,idle
1764140856706,0,-0.094000,-0.016000,1.047000,126,127,126,idle
1764140856727,0,-0.093000,-0.017000,1.047000,126,127,126,idle
1764140856748,0,-0.093000,-0.017000,1.046000,126,127,126,idle
1764140856768,0,-0.093000,-0.017000,1.044000,126,127,126,idle
1764140856789,0,-0.093000,-0.017000,1.044000,126,127,126,idle
1764140856810,0,-0.094000,-0.017000,1.043000,126,127,126,idle
1764140856831,0,-0.094000,-0.017000,1.044000,126,127,126,idle
1764140856852,0,-0.095000,-0.017000,1.044000,126,127,127,idle
1764140856871,0,-0.094000,-0.017000,1.045000,126,127,127,idle
1764140856892,0,-0.094000,-0.017000,1.045000,126,127,127,idle
1764140856913,0,-0.093000,-0.018000,1.046000,126,127,127,idle
1764140856934,0,-0.093000,-0.017000,1.046000,126,127,127,idle
1764140856953,0,-0.093000,-0.016000,1.045000,126,127,127,idle
1764140856974,0,-0.093000,-0.016000,1.045000,126,127,127,idle
1764140856994,0,-0.093000,-0.016000,1.046000,126,127,127,idle
1764140857015,0,-0.093000,-0.016000,1.045000,126,127,126,idle
1764140857036,0,-0.093000,-0.016000,1.046000,126,127,126,idle
1764140857057,0,-0.093000,-0.017000,1.046000,126,127,126,idle
1764140857078,0,-0.093000,-0.017000,1.046000,126,127,126,idle
1764140857099,0,-0.093000,-0.016000,1.046000,126,127,126,idle
1764140857121,0,-0.094000,-0.016000,1.046000,126,127,127,idle
1764140857141,0,-0.095000,-0.016000,1.046000,126,127,127,idle
1764140857162,0,-0.096000,-0.014000,1.047000,126,127,127,idle
1764140857182,0,-0.095000,-0.014000,1.046000,126,127,127,idle
1764140857203,0,-0.095000,-0.015000,1.047000,126,127,127,idle
1764140857223,0,-0.094000,-0.015000,1.047000,126,127,127,idle
1764140857243,0,-0.093000,-0.016000,1.047000,126,127,127,idle
1764140857264,0,-0.094000,-0.017000,1.046000,126,127,127,idle
1764140857285,0,-0.094000,-0.016000,1.047000,126,127,127,idle
1764140857306,0,-0.094000,-0.016000,1.047000,126,127,127,idle
1764140857326,0,-0.095000,-0.017000,1.047000,126,127,127,idle
1764140857347,0,-0.095000,-0.017000,1.047000,126,127,127,idle
1764140857367,0,-0.094000,-0.017000,1.047000,126,127,127,idle
1764140857387,0,-0.093000,-0.016000,1.047000,126,127,127,idle
1764140857407,0,-0.092000,-0.016000,1.047000,126,127,127,idle
1764140857428,0,-0.092000,-0.016000,1.046000,126,127,127,idle
1764140857448,0,-0.092000,-0.015000,1.046000,126,127,127,idle
1764140857469,0,-0.094000,-0.015000,1.044000,126,127,127,idle
1764140857489,0,-0.095000,-0.016000,1.044000,126,127,127,idle
1764140857510,0,-0.095000,-0.017000,1.044000,126,127,127,idle
1764140857530,0,-0.095000,-0.017000,1.044000,126,127,127,idle
1764140857552,0,-0.094000,-0.018000,1.046000,126,127,127,idle
1764140857573,0,-0.094000,-0.019000,1.046000,126,127,127,idle
1764140857594,0,-0.094000,-0.018000,1.045000,126,127,127,idle
1764140857614,0,-0.094000,-0.018000,1.044000,126,127,127,idle
1764140857634,0,-0.095000,-0.017000,1.044000,126,127,127,idle
1764140857655,0,-0.095000,-0.016000,1.044000,126,127,127,idle
1764140857674,0,-0.095000,-0.015000,1.044000,126,127,127,idle
1764140857695,0,-0.095000,-0.014000,1.044000,126,127,127,idle
1764140857715,0,-0.095000,-0.015000,1.045000,126,127,127,idle
1764140857735,0,-0.095000,-0.015000,1.044000,126,127,127,idle
1764140857755,0,-0.093000,-0.017000,1.046000,126,127,126,idle
1764140857776,0,-0.092000,-0.019000,1.046000,126,127,127,idle
1764140857797,0,-0.092000,-0.018000,1.045000,126,127,127,idle
1764140857817,0,-0.092000,-0.017000,1.046000,126,127,127,idle
1764140857839,0,-0.093000,-0.017000,1.046000,126,127,126,idle
1764140857860,0,-0.094000,-0.015000,1.045000,126,127,127,idle
1764140857880,0,-0.095000,-0.015000,1.046000,126,127,126,idle
1764140857901,0,-0.095000,-0.015000,1.047000,126,127,126,idle
1764140857921,0,-0.094000,-0.015000,1.047000,126,127,127,idle
1764140857940,0,-0.094000,-0.016000,1.047000,126,127,127,idle
1764140857961,0,-0.093000,-0.017000,1.047000,126,127,127,idle
1764140857981,0,-0.092000,-0.016000,1.045000,126,127,127,idle
1764140858002,0,-0.092000,-0.016000,1.046000,126,127,127,idle
1764140858022,0,-0.093000,-0.017000,1.045000,126,127,127,idle
1764140858042,0,-0.094000,-0.017000,1.045000,126,127,127,idle
1764140858062,0,-0.094000,-0.018000,1.046000,126,127,127,idle
1764140858083,0,-0.094000,-0.017000,1.046000,126,127,127,idle
1764140858104,0,-0.094000,-0.017000,1.045000,126,127,127,idle
1764140858124,0,-0.093000,-0.017000,1.046000,126,127,127,idle
1764140858145,0,-0.093000,-0.017000,1.047000,126,127,127,idle
1764140858166,0,-0.094000,-0.017000,1.047000,126,127,127,idle
1764140858186,0,-0.095000,-0.017000,1.047000,126,127,127,idle
1764140858206,0,-0.096000,-0.017000,1.048000,126,127,127,idle
1764140858227,0,-0.097000,-0.017000,1.048000,126,127,127,idle
1764140858248,0,-0.096000,-0.017000,1.046000,126,127,127,idle
1764140858268,0,-0.095000,-0.016000,1.046000,126,127,127,idle
1764140858288,0,-0.093000,-0.017000,1.044000,126,127,127,idle
1764140858308,0,-0.093000,-0.016000,1.045000,126,127,127,idle
1764140858329,0,-0.094000,-0.016000,1.045000,126,127,127,idle
1764140858350,0,-0.094000,-0.017000,1.045000,126,127,127,idle
1764140858370,0,-0.095000,-0.016000,1.045000,126,127,127,idle
1764140858391,0,-0.096000,-0.017000,1.044000,126,127,127,idle
1764140858411,0,-0.095000,-0.018000,1.045000,126,127,127,idle
1764140858432,0,-0.094000,-0.018000,1.046000,126,127,127,idle
1764140858452,0,-0.095000,-0.018000,1.047000,126,127,127,idle
1764140858473,0,-0.095000,-0.019000,1.048000,126,127,127,idle
1764140858493,0,-0.095000,-0.018000,1.048000,126,127,127,idle
1764140858513,0,-0.096000,-0.018000,1.048000,126,127,127,idle
1764140858534,0,-0.096000,-0.017000,1.047000,126,127,127,idle
1764140858555,0,-0.094000,-0.017000,1.047000,126,127,127,idle
1764140858575,0,-0.093000,-0.018000,1.045000,126,127,126,idle
1764140858596,0,-0.093000,-0.016000,1.045000,126,127,127,idle
1764140858616,0,-0.092000,-0.017000,1.045000,126,127,126,idle
1764140858638,0,-0.093000,-0.017000,1.045000,126,127,126,idle
1764140858657,0,-0.094000,-0.016000,1.045000,126,127,126,idle
1764140858678,0,-0.093000,-0.016000,1.046000,126,127,126,idle
1764140858699,0,-0.093000,-0.017000,1.046000,126,127,126,idle
1764140858720,0,-0.093000,-0.016000,1.046000,126,127,127,idle
1764140858740,0,-0.093000,-0.016000,1.046000,126,127,127,idle
1764140858760,0,-0.093000,-0.017000,1.047000,126,127,127,idle
1764140858781,0,-0.094000,-0.018000,1.047000,126,127,127,idle
1764140858801,0,-0.095000,-0.018000,1.047000,126,127,127,idle
1764140858821,0,-0.095000,-0.018000,1.046000,126,127,126,idle
1764140858841,0,-0.096000,-0.017000,1.047000,126,127,126,idle
1764140858862,0,-0.095000,-0.016000,1.046000,126,127,126,idle
1764140858882,0,-0.094000,-0.016000,1.046000,126,127,127,idle
1764140858904,0,-0.094000,-0.016000,1.045000,126,127,127,idle
1764140858923,0,-0.093000,-0.016000,1.047000,126,127,127,idle
1764140858944,0,-0.093000,-0.017000,1.047000,126,127,127,idle
1764140858965,0,-0.094000,-0.017000,1.047000,126,127,127,idle
1764140858985,0,-0.094000,-0.017000,1.046000,126,127,127,idle
1764140859005,0,-0.095000,-0.017000,1.046000,126,127,127,idle
1764140859026,0,-0.094000,-0.016000,1.045000,126,127,126,idle
1764140859049,0,-0.094000,-0.016000,1.045000,126,127,126,idle
1764140859070,0,-0.092000,-0.016000,1.046000,126,127,126,idle
1764140859092,0,-0.092000,-0.017000,1.047000,126,127,126,idle
1764140859114,0,-0.092000,-0.017000,1.046000,126,127,127,idle
1764140859137,0,-0.093000,-0.018000,1.045000,126,127,127,idle
1764140859157,0,-0.094000,-0.018000,1.044000,126,127,127,idle
1764140859177,0,-0.095000,-0.018000,1.043000,126,127,127,idle
1764140859197,0,-0.095000,-0.017000,1.042000,126,127,127,idle
1764140859218,0,-0.094000,-0.017000,1.042000,126,127,127,idle
1764140859239,0,-0.094000,-0.017000,1.043000,126,127,127,idle
1764140859260,0,-0.093000,-0.018000,1.046000,126,127,126,idle
1764140859282,0,-0.094000,-0.018000,1.047000,126,127,126,idle
1764140859303,0,-0.093000,-0.018000,1.047000,126,127,126,idle
1764140859324,0,-0.094000,-0.018000,1.046000,126,127,126,idle
1764140859346,0,-0.094000,-0.017000,1.046000,126,127,127,idle
1764140859367,0,-0.095000,-0.015000,1.046000,126,127,127,idle
1764140859386,0,-0.094000,-0.015000,1.045000,126,127,127,idle
1764140859407,0,-0.095000,-0.016000,1.045000,126,127,127,idle
1764140859427,0,-0.095000,-0.015000,1.046000,126,127,127,idle
1764140859448,0,-0.095000,-0.015000,1.046000,126,127,127,idle
1764140859470,0,-0.096000,-0.017000,1.046000,126,127,126,idle
1764140859493,0,-0.097000,-0.016000,1.045000,126,127,127,idle
1764140859513,0,-0.096000,-0.016000,1.044000,126,127,127,idle
1764140859534,0,-0.095000,-0.017000,1.044000,126,127,127,idle
1764140859554,0,-0.095000,-0.016000,1.044000,126,127,127,idle
1764140859575,0,-0.095000,-0.016000,1.046000,126,127,127,idle
1764140859596,0,-0.094000,-0.017000,1.048000,126,127,127,idle
1764140859617,0,-0.093000,-0.015000,1.048000,126,127,126,idle
1764140859638,0,-0.094000,-0.017000,1.049000,126,127,127,idle
1764140859658,0,-0.095000,-0.017000,1.047000,126,127,127,idle
1764140859678,0,-0.096000,-0.017000,1.047000,126,127,127,idle
1764140859698,0,-0.097000,-0.017000,1.046000,126,127,127,idle
1764140859720,0,-0.097000,-0.018000,1.046000,126,127,127,idle
1764140859742,0,-0.096000,-0.018000,1.045000,126,127,127,idle
1764140859763,0,-0.095000,-0.017000,1.045000,126,127,127,idle
1764140859783,0,-0.095000,-0.018000,1.045000,126,127,127,idle
1764140859804,0,-0.094000,-0.018000,1.045000,126,127,127,idle
1764140859824,0,-0.094000,-0.018000,1.044000,126,127,126,idle
1764140859845,0,-0.094000,-0.018000,1.045000,126,127,127,idle
1764140859865,0,-0.095000,-0.017000,1.044000,126,127,127,idle
1764140859887,0,-0.094000,-0.016000,1.045000,126,127,126,idle
1764140859907,0,-0.094000,-0.016000,1.045000,126,127,126,idle
1764140859927,0,-0.094000,-0.016000,1.046000,126,127,126,idle
1764140859948,0,-0.093000,-0.016000,1.046000,126,127,126,idle
1764140859968,0,-0.093000,-0.017000,1.046000,126,127,127,idle
1764140859989,0,-0.093000,-0.018000,1.046000,126,127,127,idle
1764140860009,0,-0.094000,-0.017000,1.046000,126,127,127,idle
1764140860030,0,-0.094000,-0.017000,1.045000,126,127,127,idle
1764140860050,0,-0.094000,-0.017000,1.046000,126,127,127,idle
1764140869172,0,-0.095000,-0.016000,1.043000,126,127,127,tap
1764140869192,0,-0.094000,-0.015000,1.046000,126,127,126,tap
1764140869213,0,-0.093000,-0.015000,1.045000,126,127,127,tap
1764140869233,0,-0.092000,-0.015000,1.048000,126,127,127,tap
1764140869254,0,-0.094000,-0.017000,1.051000,126,127,127,tap
1764140869273,0,-0.092000,-0.016000,1.046000,126,127,127,tap
1764140869294,0,-0.092000,-0.016000,1.042000,126,127,126,tap
1764140869314,0,-0.093000,-0.016000,1.044000,126,127,126,tap
1764140869335,0,-0.092000,-0.014000,1.044000,126,127,126,tap
1764140869355,0,-0.093000,-0.016000,1.048000,126,127,126,tap
1764140869376,0,-0.083000,-0.012000,1.036000,126,127,127,tap
1764140869397,205,-0.145000,0.021000,1.046000,126,127,126,tap
1764140869418,215,-0.124000,0.029000,1.034000,126,127,126,tap
1764140869439,119,-0.126000,0.027000,1.038000,126,127,127,tap
1764140869459,0,-0.103000,0.029000,1.020000,126,127,127,tap
1764140869480,0,-0.123000,0.023000,1.037000,126,127,126,tap
1764140869500,0,-0.074000,-0.013000,1.034000,127,127,127,tap
1764140869521,0,-0.097000,-0.021000,1.047000,127,127,127,tap
1764140869541,0,-0.093000,-0.018000,1.040000,127,127,127,tap
1764140869561,0,-0.112000,-0.019000,1.053000,127,127,127,tap
1764140869581,0,-0.103000,-0.017000,1.049000,127,127,127,tap
1764140869602,0,-0.094000,-0.018000,1.045000,126,127,127,tap
1764140869623,0,-0.098000,-0.019000,1.048000,126,127,127,tap
1764140869643,1,-0.105000,-0.018000,1.045000,126,127,127,tap
1764140869664,0,-0.099000,-0.017000,1.042000,126,127,127,tap
1764140869685,34,-0.124000,-0.029000,1.130000,126,127,126,tap
1764140869706,9,-0.109000,-0.027000,1.123000,126,127,126,tap
1764140869727,0,-0.106000,-0.027000,1.121000,126,127,126,tap
1764140869747,0,-0.095000,-0.028000,1.124000,126,127,126,tap
1764140869766,0,-0.104000,-0.030000,1.130000,126,127,126,tap
1764140869787,0,-0.081000,-0.017000,1.042000,126,127,126,tap
1764140869807,0,-0.091000,-0.016000,1.044000,126,127,126,tap
1764140869827,0,-0.093000,-0.015000,1.044000,126,127,126,tap
1764140869847,0,-0.100000,-0.015000,1.045000,127,127,126,tap
1764140869867,0,-0.093000,-0.014000,1.041000,126,127,126,tap
1764140869888,0,-0.096000,-0.017000,1.045000,126,127,126,tap
1764140869908,0,-0.095000,-0.018000,1.045000,126,127,127,tap
1764140869929,16,-0.116000,-0.018000,1.043000,126,127,127,tap
1764140869948,120,-0.120000,-0.027000,1.085000,127,126,127,tap
1764140869969,18,-0.136000,-0.031000,1.093000,127,126,127,tap
1764140869991,0,-0.151000,-0.030000,1.091000,127,126,127,tap
1764140870011,0,-0.172000,-0.030000,1.099000,127,126,127,tap
1764140870032,0,-0.157000,-0.031000,1.103000,127,126,127,tap
1764140870053,0,-0.155000,-0.022000,1.062000,126,127,127,tap
1764140870074,0,-0.139000,-0.018000,1.054000,126,127,126,tap
1764140870094,0,-0.129000,-0.019000,1.057000,126,127,126,tap
1764140870114,0,-0.113000,-0.019000,1.054000,126,127,126,tap
1764140870135,0,-0.102000,-0.019000,1.049000,126,127,127,tap
1764140870156,0,-0.101000,-0.017000,1.046000,126,127,127,tap
1764140870177,15,-0.098000,-0.015000,1.045000,126,127,127,tap
1764140870198,10,-0.144000,-0.014000,1.070000,126,127,127,tap
1764140870218,112,-0.130000,-0.003000,1.139000,127,126,126,tap
1764140870239,12,-0.152000,-0.010000,1.151000,127,126,126,tap
1764140870259,0,-0.171000,-0.016000,1.155000,127,126,126,tap
1764140870278,0,-0.185000,-0.018000,1.163000,127,126,126,tap
1764140870299,0,-0.140000,-0.018000,1.134000,127,126,126,tap
1764140870319,0,-0.151000,-0.026000,1.063000,126,127,127,tap
1764140870339,0,-0.132000,-0.019000,1.052000,126,127,126,tap
1764140870360,0,-0.113000,-0.014000,1.047000,126,127,126,tap
1764140870380,0,-0.104000,-0.013000,1.041000,126,127,126,tap
1764140870401,0,-0.104000,-0.019000,1.050000,126,127,126,tap
1764140870421,0,-0.098000,-0.018000,1.048000,126,127,127,tap
1764140870442,0,-0.098000,-0.020000,1.049000,126,127,127,tap
1764140870463,0,-0.153000,-0.034000,1.065000,126,127,127,tap
1764140870483,125,-0.132000,-0.018000,1.111000,127,126,126,tap
1764140870503,1,-0.162000,-0.028000,1.127000,127,126,126,tap
1764140870524,0,-0.196000,-0.037000,1.139000,127,126,126,tap
1764140870544,0,-0.221000,-0.037000,1.150000,127,126,126,tap
1764140870565,0,-0.171000,-0.024000,1.136000,127,126,126,tap
1764140870586,0,-0.191000,-0.038000,1.087000,127,127,127,tap
1764140870606,0,-0.159000,-0.028000,1.069000,126,127,127,tap
1764140870626,0,-0.132000,-0.020000,1.061000,126,127,126,tap
1764140870647,0,-0.108000,-0.019000,1.052000,127,127,127,tap
1764140870666,0,-0.093000,-0.017000,1.047000,126,127,127,tap
1764140870688,0,-0.098000,-0.018000,1.047000,126,127,127,tap
1764140870708,0,-0.077000,-0.017000,1.054000,127,127,127,tap
1764140870729,286,-0.154000,-0.062000,1.074000,127,127,126,tap
1764140870750,29,-0.127000,-0.056000,1.068000,127,127,126,tap
1764140870771,0,-0.109000,-0.048000,1.054000,127,127,126,tap
1764140870792,0,-0.096000,-0.040000,1.049000,127,127,126,tap
1764140870811,0,-0.102000,-0.040000,1.037000,127,127,126,tap
1764140870832,0,-0.027000,0.005000,1.016000,127,127,126,tap
1764140870852,0,-0.054000,0.001000,1.019000,127,127,127,tap
1764140870872,0,-0.070000,-0.006000,1.031000,127,127,127,tap
1764140870891,0,-0.081000,-0.013000,1.037000,127,127,127,tap
1764140870912,0,-0.088000,-0.015000,1.040000,127,127,127,tap
1764140870931,3,-0.070000,-0.011000,1.031000,126,127,126,tap
1764140870952,203,-0.151000,-0.042000,1.024000,127,127,126,tap
1764140870972,6,-0.111000,-0.041000,1.011000,127,128,126,tap
1764140870992,0,-0.106000,-0.039000,1.005000,127,128,126,tap
1764140871013,0,-0.086000,-0.037000,0.997000,127,127,126,tap
1764140871033,0,-0.089000,-0.040000,1.004000,127,127,126,tap
1764140871055,0,-0.010000,-0.009000,1.010000,126,127,126,tap
1764140871076,0,-0.048000,-0.008000,1.019000,126,127,126,tap
1764140871099,0,-0.057000,-0.008000,1.026000,126,127,126,tap
1764140871118,0,-0.078000,-0.010000,1.035000,126,127,126,tap
1764140871139,1,-0.090000,-0.013000,1.039000,126,127,126,tap
1764140871159,399,-0.082000,-0.012000,1.027000,126,127,126,tap
1764140871179,310,-0.210000,-0.032000,0.886000,126,127,126,tap
1764140871200,0,-0.218000,-0.023000,0.897000,127,126,126,tap
1764140871221,0,-0.230000,-0.026000,0.900000,126,127,126,tap
1764140871242,0,-0.247000,-0.029000,0.923000,127,126,126,tap
1764140871263,0,-0.131000,-0.013000,1.071000,127,127,126,tap
1764140871284,0,-0.143000,-0.031000,1.072000,127,127,127,tap
1764140871305,0,-0.123000,-0.022000,1.059000,126,127,126,tap
1764140871325,0,-0.117000,-0.020000,1.060000,126,127,127,tap
1764140871346,0,-0.112000,-0.019000,1.055000,126,127,127,tap
1764140871366,0,-0.103000,-0.018000,1.050000,126,127,127,tap
1764140871386,322,-0.089000,-0.019000,1.035000,126,127,127,tap
1764140871405,130,0.010000,-0.033000,1.141000,126,129,126,tap
1764140871425,3,0.010000,-0.033000,1.141000,126,129,126,tap
1764140871445,0,0,-0.033000,1.139000,126,128,126,tap
1764140871466,0,0.007000,-0.029000,1.145000,126,129,126,tap
1764140871486,0,-0.050000,0.025000,1.044000,126,127,126,tap
1764140871506,0,-0.091000,-0.015000,1.039000,127,127,126,tap
1764140871526,0,-0.075000,-0.013000,1.036000,126,127,126,tap
1764140871548,0,-0.078000,-0.013000,1.037000,126,127,126,tap
1764140871569,0,-0.102000,-0.017000,1.048000,126,127,126,tap
1764140871589,0,-0.098000,-0.017000,1.044000,126,127,127,tap
1764140871610,366,-0.241000,-0.082000,1.233000,126,128,126,tap
1764140871630,0,-0.240000,-0.048000,1.252000,126,128,126,tap
1764140871650,0,-0.249000,-0.052000,1.255000,127,127,126,tap
1764140871671,0,-0.281000,-0.060000,1.264000,127,127,126,tap
1764140871691,0,-0.307000,-0.060000,1.274000,127,127,126,tap
1764140871716,0,-0.177000,0.001000,1.089000,127,126,126,tap
1764140871738,0,-0.161000,-0.027000,1.063000,126,127,127,tap
1764140871758,0,-0.127000,-0.017000,1.054000,126,127,127,tap
1764140871778,0,-0.101000,-0.018000,1.047000,127,127,127,tap
1764140871798,0,-0.079000,-0.014000,1.040000,126,127,127,tap
1764140871818,404,-0.208000,-0.038000,0.921000,127,127,126,tap
1764140871839,75,-0.214000,0.007000,0.904000,127,127,126,tap
1764140871859,0,-0.218000,0.002000,0.908000,127,127,127,tap
1764140871881,0,-0.220000,0.009000,0.901000,127,127,127,tap
1764140871901,0,-0.220000,0.009000,0.901000,127,127,127,tap
1764140871921,0,-0.087000,0.031000,1.019000,127,126,127,tap
1764140871941,0,-0.085000,-0.011000,1.037000,127,126,127,tap
1764140871962,0,-0.086000,-0.012000,1.042000,127,127,127,tap
1764140871982,0,-0.087000,-0.016000,1.044000,127,127,127,tap
1764140872003,0,-0.086000,-0.016000,1.042000,127,127,127,tap
1764140872023,0,-0.080000,-0.014000,1.037000,126,127,127,tap
1764140872044,0,-0.069000,-0.008000,1.032000,126,127,127,tap
1764140872064,321,-0.150000,-0.053000,1.216000,127,128,127,tap
1764140872085,154,-0.150000,-0.004000,1.199000,127,128,126,tap
1764140872105,0,-0.167000,-0.011000,1.213000,127,128,126,tap
1764140872125,0,-0.160000,-0.011000,1.212000,127,128,126,tap
1764140872146,0,-0.165000,-0.013000,1.212000,127,128,126,tap
1764140872167,0,-0.084000,0.033000,1.026000,127,127,126,tap
1764140872187,0,-0.091000,-0.017000,1.044000,127,127,127,tap
1764140872207,0,-0.078000,-0.009000,1.032000,127,127,127,tap
1764140872228,0,-0.088000,-0.013000,1.039000,126,127,127,tap
1764140872248,0,-0.099000,-0.013000,1.047000,127,127,127,tap
1764140872270,15,-0.078000,-0.006000,1.033000,126,127,127,tap
1764140872290,261,-0.032000,-0.002000,1.022000,126,128,126,tap
1764140872310,143,-0.040000,-0.003000,1.022000,126,128,126,tap
1764140872330,0,-0.028000,0.002000,1.012000,126,127,126,tap
1764140872351,0,-0.045000,-0.009000,1.023000,127,127,126,tap
1764140872371,0,-0.065000,-0.017000,1.041000,127,127,126,tap
1764140872392,0,-0.117000,-0.022000,1.053000,127,126,127,tap
1764140872412,0,-0.106000,-0.019000,1.049000,127,126,127,tap
1764140872433,0,-0.117000,-0.024000,1.059000,127,127,127,tap
1764140872453,0,-0.096000,-0.016000,1.045000,127,127,127,tap
1764140872474,0,-0.085000,-0.016000,1.045000,126,127,127,tap
1764140872494,141,-0.208000,-0.063000,1.226000,126,127,127,tap
1764140872514,0,-0.225000,-0.068000,1.231000,127,127,127,tap
1764140872535,0,-0.236000,-0.068000,1.225000,127,127,127,tap
1764140872557,0,-0.235000,-0.064000,1.218000,127,127,127,tap
1764140872576,0,-0.115000,-0.004000,1.030000,126,127,127,tap
1764140872597,0,-0.130000,-0.021000,1.044000,127,127,127,tap
1764140872617,0,-0.112000,-0.016000,1.040000,126,127,126,tap
1764140872638,0,-0.103000,-0.017000,1.048000,126,127,127,tap
1764140872658,12,-0.104000,-0.020000,1.057000,126,127,127,tap
1764140872678,306,-0.078000,-0.020000,1.049000,127,127,127,tap
1764140872699,188,-0.047000,-0.002000,1.062000,126,127,126,tap
1764140872720,0,-0.028000,-0.005000,1.069000,126,127,126,tap
1764140872740,0,-0.054000,-0.008000,1.073000,127,127,126,tap
1764140872761,0,-0.088000,-0.011000,1.088000,127,127,126,tap
1764140872781,0,-0.114000,-0.028000,1.075000,127,126,127,tap
1764140872802,0,-0.128000,-0.022000,1.064000,127,126,127,tap
1764140872823,0,-0.130000,-0.025000,1.066000,127,127,127,tap
1764140872843,0,-0.100000,-0.016000,1.049000,127,127,127,tap
1764140872864,0,-0.085000,-0.014000,1.040000,127,127,127,tap
1764140872885,0,-0.087000,-0.015000,1.043000,126,127,127,tap
1764140872905,0,-0.094000,-0.017000,1.046000,126,127,127,tap
1764140872926,316,-0.093000,-0.023000,1.050000,127,127,127,tap
1764140872945,247,-0.177000,-0.137000,1.239000,126,128,127,tap
1764140872966,35,-0.168000,-0.107000,1.208000,126,128,127,tap
1764140872986,0,-0.173000,-0.110000,1.210000,126,128,127,tap
1764140873007,0,-0.138000,-0.096000,1.194000,126,128,127,tap
1764140873027,0,-0.046000,0.021000,0.999000,127,127,127,tap
1764140873047,0,-0.053000,-0.007000,1.027000,127,127,127,tap
1764140873068,0,-0.042000,-0.002000,1.021000,127,127,127,tap
1764140873089,0,-0.069000,-0.007000,1.033000,127,127,127,tap
1764140873109,0,-0.083000,-0.013000,1.038000,126,127,127,tap
1764140873131,0,-0.093000,-0.015000,1.042000,126,127,127,tap
1764140873151,26,-0.084000,-0.033000,1.074000,126,127,127,tap
1764140873172,121,-0.082000,-0.040000,1.089000,126,127,126,tap
1764140873192,85,-0.117000,-0.065000,1.115000,127,127,127,tap
1764140873211,0,-0.139000,-0.070000,1.128000,127,127,127,tap
1764140873232,0,-0.129000,-0.069000,1.122000,127,127,127,tap
1764140873252,0,-0.154000,-0.057000,1.106000,127,127,127,tap
1764140873272,0,-0.144000,-0.032000,1.073000,127,127,127,tap
1764140873293,0,-0.116000,-0.025000,1.059000,127,127,127,tap
1764140873313,0,-0.125000,-0.025000,1.064000,127,127,127,tap
1764140873333,0,-0.110000,-0.021000,1.054000,127,127,127,tap
1764140873354,0,-0.099000,-0.022000,1.048000,126,127,127,tap
1764140873374,0,-0.092000,-0.023000,1.053000,126,127,126,tap
1764140873395,264,-0.177000,-0.047000,0.939000,126,127,126,tap
1764140873416,13,-0.181000,-0.052000,0.961000,127,126,126,tap
1764140873437,0,-0.175000,-0.049000,0.953000,126,127,126,tap
1764140873457,0,-0.141000,-0.040000,0.938000,127,127,126,tap
1764140873477,0,-0.144000,-0.035000,0.933000,126,127,126,tap
1764140873498,0,-0.068000,-0.013000,1.047000,127,127,127,tap
1764140873519,0,-0.062000,-0.007000,1.023000,126,127,126,tap
1764140873540,0,-0.068000,-0.010000,1.029000,126,127,126,tap
1764140873560,0,-0.113000,-0.006000,1.037000,126,127,127,tap
1764140873582,11,-0.138000,-0.022000,1.060000,126,127,127,tap
1764140873602,222,-0.208000,-0.052000,1.055000,127,126,126,tap
1764140873623,0,-0.182000,-0.043000,1.036000,127,126,126,tap
1764140873645,0,-0.198000,-0.048000,1.040000,127,126,126,tap
1764140873666,0,-0.189000,-0.057000,1.051000,127,126,126,tap
1764140873686,0,-0.164000,-0.043000,1.032000,127,126,126,tap
1764140873707,0,-0.099000,-0.015000,1.041000,127,127,127,tap
1764140873727,0,-0.123000,-0.023000,1.057000,126,127,127,tap
1764140873748,0,-0.089000,-0.026000,1.062000,127,127,127,tap
1764140873769,277,-0.089000,0.108000,0.981000,126,129,127,tap
1764140873792,185,-0.025000,0.146000,1.012000,126,129,126,tap
1764140873812,0,-0.049000,0.130000,1.021000,126,129,126,tap
1764140873834,0,-0.070000,0.126000,1.025000,126,129,126,tap
1764140873854,0,-0.099000,0.132000,1.020000,126,129,126,tap
1764140873875,0,-0.098000,-0.001000,1.100000,127,127,126,tap
1764140873900,0,-0.157000,-0.039000,1.063000,127,126,127,tap
1764140873921,0,-0.124000,-0.010000,1.045000,127,127,127,tap
1764140873942,0,-0.101000,-0.013000,1.047000,127,127,127,tap
1764140873963,257,-0.308000,-0.067000,0.984000,127,126,126,tap
1764140873984,4,-0.227000,-0.064000,1.036000,127,126,125,tap
1764140874005,0,-0.230000,-0.052000,1.034000,127,126,125,tap
1764140874026,0,-0.210000,-0.054000,1.031000,127,126,125,tap
1764140874047,0,-0.218000,-0.049000,1.021000,127,126,125,tap
1764140874068,0,-0.015000,0.005000,1.086000,127,127,126,tap
1764140874088,0,-0.104000,0.003000,1.039000,126,127,126,tap
1764140874109,0,-0.101000,-0.018000,1.054000,126,127,127,tap
1764140874129,0,-0.088000,-0.019000,1.052000,126,127,126,tap
1764140874149,0,-0.293000,-0.047000,0.869000,126,127,127,tap
1764140874172,278,-0.192000,-0.012000,0.885000,127,126,126,tap
1764140874192,0,-0.197000,-0.011000,0.875000,127,127,126,tap
1764140874214,0,-0.202000,-0.007000,0.871000,127,127,126,tap
1764140874234,0,-0.218000,-0.009000,0.880000,126,127,126,tap
1764140874254,0,-0.010000,0.019000,1.058000,127,127,126,tap
1764140874274,0,-0.108000,-0.016000,1.039000,126,127,127,tap
1764140874294,0,-0.104000,-0.016000,1.050000,126,127,126,tap
1764140874313,0,-0.104000,-0.020000,1.049000,126,127,127,tap
1764140874334,0,-0.094000,-0.014000,1.030000,126,127,126,tap
1764140874354,387,-0.464000,-0.008000,0.830000,126,127,127,tap
1764140874375,156,-0.397000,0.009000,0.846000,126,127,127,tap
1764140874395,0,-0.405000,0.007000,0.849000,126,127,127,tap
1764140874416,0,-0.405000,0.007000,0.849000,126,127,127,tap
1764140874437,0,-0.046000,-0.004000,1.072000,127,127,126,tap
1764140874458,0,-0.114000,-0.021000,1.058000,127,127,127,tap
1764140874478,0,-0.112000,-0.017000,1.052000,126,127,126,tap
1764140874499,0,-0.112000,-0.021000,1.057000,126,127,126,tap
1764140874518,0,-0.107000,-0.019000,1.050000,126,127,126,tap
1764140874539,0,-0.111000,-0.018000,1.040000,126,127,127,tap
1764140874559,3,-0.116000,-0.024000,1.055000,127,127,127,tap
1764140874579,168,-0.094000,0.009000,1.176000,127,126,127,tap
1764140874599,0,-0.073000,0.015000,1.174000,127,126,127,tap
1764140874620,0,-0.085000,0.011000,1.176000,127,126,127,tap
1764140874641,0,-0.094000,0.007000,1.197000,127,126,127,tap
1764140874661,0,-0.112000,-0.021000,1.060000,127,126,126,tap
1764140874681,0,-0.130000,-0.024000,1.058000,127,127,127,tap
1764140874702,0,-0.122000,-0.022000,1.061000,127,127,127,tap
1764140874723,0,-0.100000,-0.018000,1.046000,127,127,127,tap
1764140874743,0,-0.094000,-0.016000,1.043000,127,127,127,tap
1764140874764,0,-0.091000,-0.017000,1.045000,126,127,127,tap
1764140874784,0,-0.093000,-0.020000,1.048000,126,127,127,tap
1764140874805,0,-0.077000,-0.004000,1.015000,126,127,126,tap
1764140874825,219,-0.186000,0,0.950000,126,127,126,tap
1764140874846,0,-0.152000,0.010000,0.941000,126,127,126,tap
1764140874867,0,-0.170000,0.004000,0.946000,127,126,126,tap
1764140874887,0,-0.176000,0.004000,0.950000,127,126,126,tap
1764140874907,0,-0.191000,-0.011000,0.983000,127,126,126,tap
1764140874928,0,-0.118000,-0.022000,1.056000,127,127,127,tap
1764140874948,0,-0.105000,-0.017000,1.052000,127,127,127,tap
1764140874968,0,-0.096000,-0.015000,1.048000,127,127,127,tap
1764140874989,0,-0.091000,-0.015000,1.043000,127,127,127,tap
1764140875011,0,-0.094000,-0.015000,1.044000,126,127,127,tap
1764140875032,0,-0.096000,-0.017000,1.048000,126,127,127,tap
1764140875052,0,-0.121000,-0.008000,1.055000,127,127,127,tap
1764140875071,388,-0.379000,-0.085000,0.958000,127,126,127,tap
1764140875092,0,-0.264000,-0.077000,1.010000,127,126,126,tap
1764140875112,0,-0.289000,-0.078000,1.001000,127,126,126,tap
1764140875133,0,-0.297000,-0.080000,1.022000,127,126,126,tap
1764140875153,0,-0.278000,-0.092000,1.020000,127,126,126,tap
1764140881879,0,-0.096000,-0.015000,1.046000,126,127,126,tap
1764140881899,0,-0.095000,-0.015000,1.045000,126,127,126,tap
1764140881920,0,-0.095000,-0.014000,1.044000,126,127,127,tap
1764140881941,0,-0.095000,-0.016000,1.046000,126,127,127,tap
1764140881961,0,-0.096000,-0.016000,1.046000,126,127,127,tap
1764140881981,0,-0.095000,-0.016000,1.047000,126,127,127,tap
1764140882003,0,-0.095000,-0.016000,1.046000,126,127,127,tap
1764140882023,0,-0.094000,-0.015000,1.045000,126,127,127,tap
1764140882044,0,-0.093000,-0.014000,1.044000,126,127,126,tap
1764140882066,0,-0.094000,-0.014000,1.046000,126,127,126,tap
1764140882086,0,-0.096000,-0.014000,1.045000,126,127,126,tap
1764140882107,0,-0.097000,-0.016000,1.046000,126,127,126,tap
1764140882128,0,-0.097000,-0.015000,1.046000,126,127,126,tap
1764140882148,0,-0.097000,-0.015000,1.047000,126,127,127,tap
1764140882170,0,-0.097000,-0.014000,1.044000,126,127,127,tap
1764140882190,0,-0.095000,-0.015000,1.046000,126,127,127,tap
1764140882213,0,-0.095000,-0.016000,1.047000,126,127,127,tap
1764140882233,0,-0.095000,-0.016000,1.048000,126,127,127,tap
1764140882255,0,-0.095000,-0.018000,1.049000,126,127,127,tap
1764140882277,0,-0.095000,-0.017000,1.048000,126,127,127,tap
1764140882297,0,-0.096000,-0.017000,1.047000,126,127,127,tap
1764140882318,0,-0.096000,-0.017000,1.047000,126,127,127,tap
1764140882338,0,-0.095000,-0.017000,1.048000,126,127,127,tap
1764140882358,0,-0.095000,-0.017000,1.047000,126,127,127,tap
1764140882379,0,-0.097000,-0.017000,1.045000,126,127,127,tap
1764140882400,0,-0.097000,-0.014000,1.044000,126,127,127,tap
1764140882421,0,-0.097000,-0.015000,1.043000,126,127,127,tap
1764140882441,0,-0.097000,-0.018000,1.044000,126,127,126,tap
1764140882462,0,-0.096000,-0.018000,1.045000,126,127,126,tap
1764140882483,0,-0.094000,-0.018000,1.046000,126,127,126,tap
1764140882504,0,-0.089000,-0.018000,1.043000,126,127,127,tap
1764140882524,0,-0.057000,-0.013000,1.035000,126,127,126,tap
1764140882544,0,-0.063000,-0.014000,1.040000,126,127,126,tap
1764140882565,0,-0.067000,-0.016000,1.042000,126,127,126,tap
1764140882585,0,-0.070000,-0.016000,1.041000,126,127,126,tap
1764140882606,0,-0.108000,-0.018000,1.055000,126,127,127,tap
1764140882626,0,-0.102000,-0.015000,1.049000,126,127,127,tap
1764140882645,0,-0.100000,-0.015000,1.049000,126,127,127,tap
1764140882667,0,-0.098000,-0.016000,1.050000,126,127,127,tap
1764140882688,0,-0.097000,-0.016000,1.049000,126,127,127,tap
1764140882708,0,-0.101000,-0.013000,1.054000,127,127,127,tap
1764140882729,0,-0.248000,-0.003000,0.962000,126,126,126,tap
1764140882750,1,-0.247000,-0.029000,0.986000,127,126,126,tap
1764140882770,0,-0.229000,-0.030000,0.970000,127,126,126,tap
1764140882791,0,-0.216000,-0.027000,0.965000,127,126,126,tap
1764140882812,0,-0.207000,-0.028000,0.958000,126,126,126,tap
1764140882833,0,-0.033000,-0.039000,1.045000,127,127,126,tap
1764140882854,357,-0.380000,-0.064000,0.893000,127,127,126,tap
1764140882874,0,-0.453000,-0.061000,0.966000,127,126,126,tap
1764140882895,0,-0.459000,-0.061000,0.967000,127,126,126,tap
1764140882915,0,-0.473000,-0.056000,0.972000,127,126,126,tap
1764140882936,0,-0.138000,-0.006000,1.096000,127,126,127,tap
1764140882956,0,-0.282000,-0.055000,1.229000,126,128,127,tap
1764140882977,443,-0.226000,-0.050000,1.252000,126,127,127,tap
1764140882997,0,-0.269000,-0.051000,1.241000,126,127,127,tap
1764140883018,0,-0.288000,-0.057000,1.255000,126,127,127,tap
1764140883038,0,-0.276000,-0.058000,1.267000,126,127,127,tap
1764140883058,0,-0.100000,-0.026000,1.093000,127,126,127,tap
1764140883078,149,-0.102000,0.018000,0.957000,126,127,127,tap
1764140883098,17,-0.023000,0.026000,0.994000,127,127,127,tap
1764140883118,0,-0.023000,0.027000,0.988000,126,127,127,tap
1764140883138,0,-0.017000,0.036000,0.969000,126,127,127,tap
1764140883158,0,-0.077000,-0.004000,1.075000,127,127,127,tap
1764140883178,0,-0.077000,-0.004000,1.075000,127,127,127,tap
1764140883198,2,-0.030000,0.016000,0.967000,126,128,127,tap
1764140883218,0,0.177000,0.204000,0.935000,126,127,127,tap
1764140883238,0,0.219000,0.212000,0.902000,126,127,127,tap
1764140883259,0,0.245000,0.216000,0.889000,126,128,127,tap
1764140883281,0,0.167000,0.188000,0.965000,126,127,127,tap
1764140883301,0,0.009000,-0.003000,0.960000,127,127,127,tap
1764140883321,352,-0.235000,-0.047000,0.929000,127,127,127,tap
1764140883342,0,-0.172000,-0.064000,0.971000,127,126,127,tap
1764140883362,0,-0.218000,-0.077000,0.996000,127,126,127,tap
1764140883382,0,-0.229000,-0.078000,1.014000,127,126,127,tap
1764140883403,0,-0.218000,-0.081000,0.994000,127,126,127,tap
1764140883423,0,-0.008000,-0.047000,1.092000,127,126,127,tap
1764140883444,380,-0.124000,0.052000,0.975000,126,128,127,tap
1764140883464,23,-0.034000,0.072000,0.977000,126,128,127,tap
1764140883486,0,-0.037000,0.077000,0.972000,126,129,127,tap
1764140883507,0,-0.068000,0.083000,0.978000,126,128,127,tap
1764140883528,0,-0.051000,-0.004000,1.075000,127,127,127,tap
1764140883549,4,0.059000,-0.003000,0.905000,127,127,127,tap
1764140883570,196,0.190000,0.124000,0.900000,127,127,126,tap
1764140883590,0,0.229000,0.128000,0.880000,127,127,126,tap
1764140883610,0,0.231000,0.130000,0.876000,127,127,126,tap
1764140883631,0,0.241000,0.131000,0.878000,127,127,126,tap
1764140883651,0,0.098000,0.109000,1.045000,127,127,126,tap
1764140883671,0,-0.143000,-0.058000,1.032000,127,126,126,tap
1764140883691,201,-0.138000,-0.058000,1.021000,127,126,126,tap
1764140883710,0,-0.130000,-0.055000,1.007000,127,126,126,tap
1764140883731,0,-0.124000,-0.054000,1.008000,127,127,126,tap
1764140883752,0,-0.134000,-0.061000,1.022000,127,126,126,tap
1764140883772,0,-0.073000,-0.006000,1.016000,127,127,127,tap
1764140883793,0,-0.024000,0.055000,0.899000,126,128,127,tap
1764140883814,60,0.016000,0.040000,0.937000,126,127,127,tap
1764140883834,9,0.035000,0.040000,0.944000,126,127,127,tap
1764140883855,0,0.032000,0.041000,0.948000,126,127,127,tap
1764140883875,0,0.020000,0.036000,0.958000,126,127,127,tap
1764140883896,0,-0.030000,-0.015000,1.060000,127,127,127,tap
1764140883916,79,0.020000,0.009000,0.884000,126,127,127,tap
1764140883937,174,0.089000,-0.012000,0.864000,126,128,127,tap
1764140883957,0,0.124000,0,0.839000,126,128,127,tap
1764140883978,0,0.141000,-0.007000,0.851000,126,128,127,tap
1764140883999,0,0.040000,-0.020000,0.999000,126,127,127,tap
1764140884019,0,0.001000,0.039000,0.942000,126,127,127,tap
1764140884041,0,-0.166000,0.003000,1.056000,126,129,127,tap
1764140884062,488,-0.195000,-0.008000,1.092000,126,128,127,tap
1764140884083,12,-0.186000,0.004000,1.104000,126,128,127,tap
1764140884103,0,-0.200000,0.001000,1.126000,126,128,127,tap
1764140884123,0,-0.186000,-0.023000,1.175000,126,128,127,tap
1764140884143,0,-0.083000,0,1.076000,127,126,127,tap
1764140884163,0,-0.056000,0.007000,1.036000,127,127,127,tap
1764140884184,256,-0.149000,-0.019000,1.054000,126,127,127,tap
1764140884205,0,-0.024000,0.007000,1.030000,127,126,127,tap
1764140884225,0,-0.011000,0.011000,1.031000,127,126,127,tap
1764140884246,0,-0.030000,0.006000,1.050000,127,126,127,tap
1764140884267,0,0.025000,0.002000,1.067000,127,127,127,tap
1764140884289,0,0.093000,0.011000,0.722000,126,128,127,tap
1764140884310,214,0.024000,-0.001000,0.757000,126,128,127,tap
1764140884329,0,0.082000,0.004000,0.828000,126,128,127,tap
1764140884349,0,0.066000,0.003000,0.837000,126,129,127,tap
1764140884370,0,0.072000,0.017000,0.807000,126,129,127,tap
1764140884390,0,-0.105000,-0.017000,1.155000,126,127,127,tap
1764140884411,0,-0.058000,-0.014000,1.130000,126,127,127,tap
1764140884431,436,-0.506000,0.034000,0.900000,126,127,127,tap
1764140884452,0,-0.420000,0.073000,0.925000,126,126,127,tap
1764140884472,0,-0.433000,0.066000,0.928000,127,126,127,tap
1764140884493,0,-0.419000,0.073000,0.934000,126,126,127,tap
1764140884516,0,-0.044000,0.019000,1.085000,127,126,127,tap
1764140884537,0,-0.126000,-0.026000,1.070000,127,127,127,tap
1764140884558,0,-0.087000,-0.137000,1.122000,126,126,127,tap
1764140884580,278,-0.027000,-0.131000,1.129000,127,126,127,tap
1764140884602,0,-0.043000,-0.130000,1.123000,127,126,127,tap
1764140884622,0,-0.057000,-0.138000,1.149000,127,126,127,tap
1764140884643,0,-0.072000,-0.019000,1.077000,127,126,127,tap
1764140884663,0,-0.121000,-0.021000,1.057000,126,127,127,tap
1764140884683,0,-0.121000,-0.021000,1.057000,126,127,127,tap
1764140884705,278,-0.086000,0.033000,0.927000,127,127,127,tap
1764140884726,0,-0.092000,0.031000,0.931000,127,127,127,tap
1764140884747,0,-0.117000,0.026000,0.949000,127,127,127,tap
1764140884767,0,-0.128000,0.020000,0.957000,127,127,127,tap
1764140884787,0,-0.037000,-0.005000,0.995000,127,127,127,tap
1764140884808,0,-0.106000,-0.027000,1.070000,127,127,127,tap
1764140884829,270,-0.157000,-0.050000,1.067000,127,127,127,tap
1764140884851,0,-0.095000,-0.035000,0.962000,126,127,127,tap
1764140884873,0,-0.083000,-0.029000,0.947000,126,127,127,tap
1764140884893,0,-0.089000,-0.029000,0.947000,126,127,127,tap
1764140884914,0,-0.028000,0.018000,0.906000,126,127,127,tap
1764140884935,0,0.156000,0.034000,0.587000,126,128,127,tap
1764140884955,95,0.195000,0.026000,0.611000,126,128,127,tap
1764140884976,155,0.266000,0.050000,0.527000,126,128,127,tap
1764140884997,0,0.276000,0.056000,0.518000,126,128,127,tap
1764140885017,0,0.294000,0.042000,0.546000,126,128,127,tap
1764140885037,0,0.067000,0.017000,0.945000,126,127,127,tap
1764140885057,0,0.025000,0.036000,0.920000,126,127,126,tap
1764140885078,0,-0.167000,-0.005000,1.071000,126,127,126,tap
1764140885098,270,-0.122000,0.014000,1.094000,126,127,127,tap
1764140885120,0,-0.124000,0.013000,1.101000,127,127,127,tap
1764140885141,0,-0.130000,0,1.120000,127,126,127,tap
1764140885161,0,-0.020000,0.014000,1.047000,127,126,127,tap
1764140885181,0,-0.074000,0.001000,1.024000,127,126,127,tap
1764140885203,0,-0.128000,-0.006000,1.053000,127,127,127,tap
1764140885224,6,-0.081000,-0.014000,1.049000,126,127,127,tap
1764140885245,0,-0.024000,-0.002000,0.950000,126,127,127,tap
1764140885265,0,-0.028000,-0.004000,0.962000,127,127,127,tap
1764140885286,0,-0.031000,-0.014000,0.983000,127,127,127,tap
1764140885306,0,-0.007000,-0.015000,0.960000,127,127,127,tap
1764140885327,0,-0.182000,0.070000,0.794000,126,128,127,tap
1764140885347,216,-0.201000,0.053000,0.765000,126,128,127,tap
1764140885367,237,-0.118000,0.063000,0.764000,126,128,127,tap
1764140885388,0,-0.141000,0.061000,0.778000,126,128,127,tap
1764140885410,0,-0.138000,0.057000,0.811000,126,128,127,tap
1764140885431,0,-0.070000,-0.031000,1.046000,127,126,127,tap
1764140885451,0,-0.056000,-0.018000,1.102000,127,126,127,tap
1764140885472,0,-0.180000,-0.022000,1.036000,127,126,127,tap
1764140885492,244,-0.192000,-0.027000,1.028000,127,126,127,tap
1764140885512,0,-0.174000,-0.019000,1.002000,127,126,126,tap
1764140885533,0,-0.156000,-0.012000,1,127,126,127,tap
1764140885554,0,-0.139000,-0.005000,0.958000,127,126,126,tap
1764140885574,0,-0.097000,-0.010000,1.014000,127,127,126,tap
1764140885594,0,-0.275000,-0.049000,1.020000,127,127,127,tap
1764140885614,272,-0.224000,-0.036000,1.045000,127,126,127,tap
1764140885635,8,-0.235000,-0.020000,1.046000,127,126,127,tap
1764140885656,0,-0.227000,-0.015000,1.037000,127,127,127,tap
1764140885677,0,-0.267000,-0.007000,1.027000,127,127,127,tap
1764140885697,0,-0.031000,0.028000,1.038000,127,127,127,tap
1764140885717,0,-0.058000,0.008000,1.014000,126,127,126,tap
1764140885738,0,-0.089000,0,1.060000,126,127,127,tap
1764140885758,275,-0.037000,0.027000,1.097000,127,126,127,tap
1764140885779,0,-0.045000,0.024000,1.100000,127,126,127,tap
1764140885800,0,-0.038000,0.026000,1.102000,127,126,127,tap
1764140885822,0,-0.036000,0.021000,1.059000,127,127,127,tap
1764140885842,0,-0.092000,-0.006000,1.020000,126,127,126,tap
1764140885863,0,-0.062000,-0.011000,0.998000,126,127,127,tap
1764140885883,264,-0.038000,0.014000,1.012000,127,127,127,tap
1764140885903,18,-0.036000,0.017000,1.004000,127,126,127,tap
1764140885925,0,-0.036000,0.015000,1.017000,127,126,127,tap
1764140885946,0,-0.043000,0.008000,1.032000,127,126,127,tap
1764140885967,0,-0.066000,0.017000,1.049000,127,126,127,tap
1764140885987,0,-0.097000,-0.010000,1.041000,127,127,127,tap
1764140886008,341,-0.304000,0.109000,0.957000,127,126,126,tap
1764140886028,143,-0.270000,0.098000,0.950000,127,127,126,tap
1764140886049,0,-0.252000,0.102000,0.931000,127,126,126,tap
1764140886069,0,-0.240000,0.102000,0.932000,127,127,126,tap
1764140886091,0,-0.033000,-0.019000,1.022000,127,127,126,tap
1764140886111,0,-0.065000,-0.008000,1.020000,126,127,127,tap
1764140886133,0,-0.091000,-0.004000,1.033000,126,127,127,tap
1764140886155,0,-0.151000,-0.046000,1,127,127,126,tap
1764140886175,250,-0.142000,-0.043000,0.998000,127,127,126,tap
1764140886195,9,-0.147000,-0.046000,1.005000,127,127,126,tap
1764140886214,0,-0.152000,-0.046000,1.013000,127,127,126,tap
1764140886235,0,-0.146000,-0.054000,1.025000,127,127,126,tap
1764140886255,0,-0.090000,-0.013000,1.053000,127,127,127,tap
1764140886276,0,-0.073000,-0.022000,1.061000,127,127,127,tap
1764140886296,0,-0.073000,-0.022000,1.061000,127,127,127,tap
1764140886317,292,-0.052000,-0.035000,1.122000,127,127,127,tap
1764140886337,25,-0.037000,-0.033000,1.114000,127,127,127,tap
1764140886357,0,-0.037000,-0.034000,1.116000,127,127,127,tap
1764140886377,0,-0.060000,-0.026000,1.106000,127,126,127,tap
1764140886397,0,-0.033000,0.005000,1.040000,127,127,127,tap
1764140886419,0,-0.075000,-0.012000,1.032000,127,127,127,tap
1764140886438,0,-0.091000,-0.014000,1.039000,126,127,127,tap
1764140886459,0,-0.128000,-0.016000,1.063000,126,127,127,tap
1764140886480,334,-0.135000,-0.018000,1.066000,126,127,127,tap
1764140886501,206,-0.135000,-0.021000,1.067000,127,127,127,tap
1764140886526,0,-0.127000,-0.014000,1.070000,126,127,127,tap
1764140886548,0,-0.086000,-0.011000,1.044000,127,127,127,tap
1764140886569,0,-0.081000,-0.008000,1.042000,127,127,127,tap
1764140886591,0,-0.078000,-0.006000,1.044000,126,127,127,tap
1764140886610,0,-0.100000,-0.010000,1.034000,126,127,126,tap
1764140886631,0,-0.183000,-0.030000,1.013000,126,127,126,tap
1764140886651,367,-0.196000,-0.030000,1.023000,126,126,127,tap
1764140886672,0,-0.203000,-0.025000,1.021000,127,126,127,tap
1764140886692,0,-0.203000,-0.027000,1.021000,127,126,127,tap
1764140886713,0,-0.193000,-0.031000,1.032000,127,126,127,tap
1764140886733,0,-0.115000,-0.011000,1.055000,127,127,127,tap
1764140886755,0,-0.099000,-0.016000,1.050000,127,127,127,tap
1764140886775,0,-0.084000,-0.021000,1.055000,126,127,127,tap
1764140886797,0,-0.073000,-0.004000,1.068000,126,128,126,tap
1764140886817,173,-0.069000,-0.006000,1.075000,126,127,126,tap
1764140886838,77,-0.052000,-0.001000,1.062000,126,127,126,tap
1764140886860,0,-0.054000,-0.002000,1.061000,126,127,126,tap
1764140886881,0,-0.071000,0.005000,1.054000,126,127,126,tap
1764140886901,0,-0.085000,-0.011000,1.039000,127,127,126,tap
1764140886922,0,-0.088000,-0.005000,1.024000,126,127,127,tap
1764140886942,0,-0.117000,-0.009000,1.040000,126,127,127,tap
1764140886962,175,-0.119000,-0.024000,1.074000,127,126,127,tap
1764140886984,5,-0.108000,-0.021000,1.068000,127,126,127,tap
1764140887004,0,-0.111000,-0.027000,1.079000,127,126,127,tap
1764140887025,0,-0.093000,-0.028000,1.073000,127,126,127,tap
1764140887046,0,-0.094000,-0.017000,1.042000,127,127,127,tap
1764140887069,0,-0.081000,-0.016000,1.048000,127,127,127,tap
1764140887089,0,-0.094000,-0.023000,1.066000,127,127,127,tap
1764140887109,230,-0.097000,-0.049000,1.126000,127,127,126,tap
1764140887129,5,-0.077000,-0.045000,1.135000,127,126,126,tap
1764140887150,0,-0.081000,-0.047000,1.140000,127,126,126,tap
1764140887170,0,-0.073000,-0.038000,1.114000,127,127,126,tap
1764140887190,0,-0.069000,-0.011000,1.049000,127,127,127,tap
1764140887211,0,-0.092000,-0.015000,1.042000,126,127,127,tap
1764140887233,0,-0.080000,-0.014000,1.039000,126,127,127,tap
1764140887253,0,-0.063000,-0.047000,1.059000,126,128,127,tap
1764140887275,512,-0.131000,-0.068000,1.093000,126,128,127,tap
1764140887296,213,-0.067000,-0.060000,1.095000,126,128,127,tap
1764140887315,0,-0.070000,-0.060000,1.080000,126,128,127,tap
1764140887336,0,-0.078000,-0.059000,1.083000,126,128,127,tap
1764140887356,0,-0.105000,-0.028000,1.069000,127,127,127,tap
1764140887376,0,-0.042000,-0.009000,1.037000,126,127,127,tap
1764140887397,0,-0.103000,-0.021000,1.039000,126,127,127,tap
1764140887417,9,-0.033000,0.011000,0.942000,126,127,127,tap
1764140887437,159,-0.011000,0.022000,0.935000,126,127,127,tap
1764140887458,0,0.085000,0.059000,0.922000,126,127,127,tap
1764140887478,0,0.080000,0.063000,0.924000,126,127,127,tap
1764140887499,0,0.011000,0.032000,1.035000,126,127,127,tap
1764140887520,0,-0.013000,0.020000,1.034000,127,127,127,tap
1764140887541,0,-0.119000,-0.010000,1.052000,126,127,127,tap
1764140887561,0,-0.115000,-0.018000,1.064000,127,127,127,tap
1764140887583,0,-0.099000,-0.018000,1.054000,127,127,127,tap
1764140887603,72,-0.080000,-0.013000,1.041000,127,127,127,tap
1764140887622,0,-0.073000,-0.012000,1.046000,127,127,127,tap
1764140887643,0,-0.070000,-0.013000,1.046000,127,127,127,tap
1764140887663,0,-0.061000,-0.007000,1.025000,127,127,127,tap
1764140887684,0,-0.076000,-0.008000,1.030000,127,127,127,tap
1764140887704,0,-0.080000,-0.018000,1.047000,127,127,127,tap
1764140887724,156,-0.069000,-0.014000,1.047000,127,127,127,tap
1764140887745,0,-0.064000,-0.011000,1.044000,127,127,127,tap
1764140887766,0,-0.063000,-0.013000,1.051000,127,127,127,tap
1764140887787,0,-0.079000,-0.008000,1.046000,127,127,127,tap
1764140887807,0,-0.108000,-0.017000,1.044000,127,127,127,tap
1764140887827,0,-0.110000,-0.001000,1.034000,126,127,127,tap
1764140887848,0,-0.104000,-0.004000,1.035000,126,127,127,tap
1764140887868,0,-0.101000,-0.023000,1.090000,127,127,127,tap
1764140907032,0,-0.077000,0.462000,0.908000,126,127,127,tap
1764140907053,0,-0.080000,0.464000,0.901000,126,127,127,tap
1764140907074,0,-0.081000,0.462000,0.906000,126,127,127,tap
1764140907094,0,-0.081000,0.470000,0.925000,126,127,127,tap
1764140907115,0,-0.084000,0.473000,0.929000,126,127,127,tap
1764140907136,0,-0.087000,0.469000,0.932000,126,127,127,tap
1764140907156,0,-0.091000,0.461000,0.935000,126,127,126,tap
1764140907176,0,-0.088000,0.455000,0.926000,126,127,126,tap
1764140907197,0,-0.083000,0.453000,0.930000,126,127,126,tap
1764140907218,0,-0.084000,0.459000,0.941000,126,127,126,tap
1764140907238,0,-0.084000,0.455000,0.944000,127,127,127,tap
1764140907258,0,-0.078000,0.443000,0.936000,127,127,127,tap
1764140907279,0,-0.081000,0.435000,0.942000,127,127,127,tap
1764140907300,0,-0.083000,0.432000,0.939000,127,127,127,tap
1764140907320,0,-0.085000,0.433000,0.929000,127,127,126,tap
1764140907340,0,-0.092000,0.442000,0.925000,126,127,126,tap
1764140907360,0,-0.108000,0.452000,0.928000,126,127,126,tap
1764140907380,0,-0.112000,0.453000,0.916000,126,127,127,tap
1764140907399,0,-0.114000,0.465000,0.904000,126,127,127,tap
1764140907420,0,-0.108000,0.464000,0.894000,125,127,126,tap
1764140907441,0,-0.088000,0.456000,0.916000,125,127,126,tap
1764140907460,0,-0.066000,0.453000,0.932000,125,127,126,tap
1764140907482,0,-0.051000,0.443000,0.988000,125,127,126,tap
1764140907502,0,-0.051000,0.438000,1.013000,126,127,126,tap
1764140907522,0,-0.060000,0.439000,0.995000,127,127,126,tap
1764140907543,0,-0.070000,0.445000,0.996000,128,127,126,tap
1764140907565,0,-0.081000,0.449000,0.984000,129,127,127,tap
1764140907585,0,-0.083000,0.451000,0.945000,129,127,127,tap
1764140907605,0,-0.081000,0.450000,0.906000,129,127,127,tap
1764140907626,0,-0.075000,0.445000,0.893000,128,127,126,tap
1764140907646,0,-0.073000,0.438000,0.863000,128,127,126,tap
1764140907666,0,-0.067000,0.433000,0.851000,127,128,126,tap
1764140907688,0,-0.073000,0.425000,0.867000,126,127,126,tap
1764140907709,0,-0.119000,0.443000,0.951000,125,127,126,tap
1764140907729,0,-0.145000,0.449000,0.971000,125,127,126,tap
1764140907750,0,-0.159000,0.478000,0.961000,126,127,126,tap
1764140907771,0,-0.170000,0.495000,0.950000,126,127,126,tap
1764140907792,280,-0.129000,0.537000,0.893000,126,127,125,tap
1764140907813,73,-0.120000,0.515000,0.893000,127,127,126,tap
1764140907834,0,-0.097000,0.501000,0.909000,127,127,126,tap
1764140907854,0,-0.086000,0.473000,0.929000,127,127,126,tap
1764140907874,0,-0.083000,0.468000,0.939000,127,127,127,tap
1764140907895,0,-0.115000,0.416000,0.957000,127,127,127,tap
1764140907916,0,-0.125000,0.413000,0.924000,127,128,127,tap
1764140907936,0,-0.139000,0.417000,0.898000,126,128,127,tap
1764140907957,0,-0.162000,0.407000,0.942000,126,127,126,tap
1764140907978,0,-0.166000,0.423000,0.964000,126,127,127,tap
1764140907999,0,-0.161000,0.446000,0.974000,126,126,127,tap
1764140908021,0,-0.146000,0.446000,0.973000,127,126,127,tap
1764140908042,0,-0.126000,0.453000,0.949000,127,126,127,tap
1764140908062,0,-0.120000,0.452000,0.911000,127,126,127,tap
1764140908083,0,-0.108000,0.445000,0.893000,127,126,127,tap
1764140908104,2,-0.128000,0.454000,0.887000,126,127,127,tap
1764140908124,0,-0.124000,0.452000,0.905000,126,127,127,tap
1764140908144,0,-0.135000,0.454000,0.920000,126,127,127,tap
1764140908165,0,-0.150000,0.442000,0.938000,126,127,127,tap
1764140908185,0,-0.124000,0.425000,0.946000,127,127,127,tap
1764140908205,0,-0.125000,0.430000,0.922000,127,127,127,tap
1764140908226,0,-0.165000,0.469000,0.923000,126,127,127,tap
1764140908248,394,-0.159000,0.474000,0.934000,126,127,126,tap
1764140908268,280,-0.134000,0.496000,0.951000,126,127,127,tap
1764140908288,0,-0.134000,0.519000,0.969000,127,127,127,tap
1764140908309,0,-0.129000,0.514000,0.958000,127,127,127,tap
1764140908329,0,-0.073000,0.480000,0.959000,127,127,127,tap
1764140908349,0,-0.078000,0.480000,0.953000,127,127,127,tap
1764140908370,0,-0.110000,0.463000,0.901000,127,127,127,tap
1764140908390,12,-0.100000,0.463000,0.835000,127,127,127,tap
1764140908411,489,-0.210000,0.435000,0.911000,126,127,126,tap
1764140908431,0,-0.158000,0.442000,0.997000,126,127,126,tap
1764140908453,0,-0.147000,0.444000,1.018000,126,127,126,tap
1764140908473,0,-0.156000,0.421000,1.045000,127,127,126,tap
1764140908494,0,-0.059000,0.454000,0.995000,127,127,127,tap
1764140908516,0,-0.103000,0.457000,0.915000,127,127,127,tap
1764140908536,0,-0.101000,0.417000,0.848000,127,127,127,tap
1764140908557,275,-0.183000,0.428000,0.887000,126,127,126,tap
1764140908577,0,-0.165000,0.440000,0.915000,125,127,127,tap
1764140908598,0,-0.171000,0.450000,0.980000,125,127,127,tap
1764140908619,0,-0.188000,0.449000,1.004000,126,127,127,tap
1764140908640,0,-0.124000,0.427000,0.971000,127,127,127,tap
1764140908660,0,-0.137000,0.419000,0.947000,127,127,127,tap
1764140908681,0,-0.113000,0.398000,0.875000,127,127,127,tap
1764140908703,0,-0.163000,0.445000,0.781000,126,127,126,tap
1764140908724,80,-0.138000,0.471000,0.847000,126,127,126,tap
1764140908744,0,-0.136000,0.498000,0.874000,126,127,127,tap
1764140908764,0,-0.145000,0.482000,0.871000,126,127,127,tap
1764140908785,0,-0.151000,0.482000,0.863000,127,127,127,tap
1764140908806,0,-0.086000,0.450000,0.963000,127,127,127,tap
1764140908826,0,-0.095000,0.438000,0.920000,127,127,127,tap
1764140908846,0,-0.080000,0.466000,0.901000,126,127,126,tap
1764140908867,0,-0.105000,0.490000,0.935000,126,127,126,tap
1764140908887,0,-0.105000,0.475000,0.944000,127,127,126,tap
1764140908908,0,-0.112000,0.461000,0.932000,127,127,126,tap
1764140908928,0,-0.099000,0.437000,0.946000,127,127,126,tap
1764140908948,0,-0.106000,0.420000,0.925000,127,127,127,tap
1764140908969,0,-0.094000,0.409000,0.868000,127,127,127,tap
1764140908990,260,-0.047000,0.418000,0.868000,126,127,126,tap
1764140909010,0,-0.065000,0.451000,0.916000,126,127,126,tap
1764140909030,0,-0.067000,0.457000,0.917000,126,127,126,tap
1764140909050,0,-0.072000,0.447000,0.914000,127,127,126,tap
1764140909071,0,-0.069000,0.437000,0.942000,127,127,126,tap
1764140909091,8,-0.124000,0.434000,0.912000,127,127,127,tap
1764140909111,328,-0.133000,0.442000,0.898000,127,127,126,tap
1764140909131,0,-0.082000,0.439000,0.941000,126,127,126,tap
1764140909152,0,-0.086000,0.471000,0.979000,127,126,126,tap
1764140909173,0,-0.057000,0.469000,0.979000,127,126,126,tap
1764140909193,0,-0.016000,0.449000,0.984000,127,126,127,tap
1764140909213,0,-0.072000,0.455000,0.921000,127,127,127,tap
1764140909233,0,-0.113000,0.456000,0.837000,127,127,127,tap
1764140909254,379,-0.077000,0.467000,0.846000,126,127,126,tap
1764140909276,169,-0.104000,0.488000,0.912000,126,127,127,tap
1764140909296,0,-0.139000,0.488000,0.917000,126,127,127,tap
1764140909316,0,-0.131000,0.460000,0.895000,126,127,127,tap
1764140909337,0,-0.097000,0.436000,0.960000,127,127,127,tap
1764140909358,0,-0.158000,0.438000,0.961000,127,127,127,tap
1764140909378,17,-0.138000,0.428000,0.883000,127,127,127,tap
1764140909398,507,-0.166000,0.409000,0.911000,126,127,126,tap
1764140909419,0,-0.120000,0.410000,1.027000,126,127,126,tap
1764140909440,0,-0.113000,0.406000,1.046000,127,127,126,tap
1764140909460,0,-0.090000,0.396000,1.057000,127,127,126,tap
1764140909481,0,-0.047000,0.418000,1.012000,128,127,127,tap
1764140909502,0,-0.091000,0.444000,0.920000,128,127,127,tap
1764140909523,0,-0.069000,0.440000,0.849000,127,127,127,tap
1764140909543,33,0.005000,0.499000,0.848000,127,127,126,tap
1764140909563,0,-0.015000,0.540000,0.903000,126,127,126,tap
1764140909583,0,-0.033000,0.552000,0.929000,127,127,127,tap
1764140909603,0,-0.046000,0.540000,0.898000,127,127,127,tap
1764140909624,0,-0.042000,0.536000,0.919000,127,127,127,tap
1764140909644,0,-0.124000,0.508000,0.937000,127,127,127,tap
1764140909664,0,-0.115000,0.476000,0.870000,128,126,127,tap
1764140909684,0,-0.075000,0.472000,0.818000,127,127,126,tap
1764140909704,0,-0.039000,0.503000,0.927000,126,127,126,tap
1764140909724,0,-0.056000,0.499000,0.925000,127,127,127,tap
1764140909744,0,-0.052000,0.485000,0.922000,127,127,127,tap
1764140909765,0,-0.056000,0.488000,0.931000,127,127,127,tap
1764140909785,0,-0.075000,0.507000,0.915000,127,127,127,tap
1764140909807,0,-0.045000,0.480000,0.846000,127,127,127,tap
1764140909827,0,-0.047000,0.492000,0.824000,126,127,127,tap
1764140909849,0,-0.035000,0.499000,0.910000,126,127,126,tap
1764140909869,0,-0.054000,0.512000,0.953000,126,127,127,tap
1764140909889,0,-0.063000,0.507000,0.946000,126,127,127,tap
1764140909910,0,-0.078000,0.491000,0.944000,127,127,127,tap
1764140909930,0,-0.062000,0.484000,0.969000,127,127,127,tap
1764140909951,0,-0.079000,0.516000,0.877000,127,127,127,tap
1764140909972,0,-0.042000,0.506000,0.791000,126,127,126,tap
1764140909993,8,-0.061000,0.532000,0.858000,126,127,126,tap
1764140910014,0,-0.078000,0.536000,0.863000,126,127,126,tap
1764140910035,0,-0.085000,0.498000,0.873000,127,127,126,tap
1764140910057,0,-0.083000,0.502000,0.886000,127,127,126,tap
1764140910078,0,-0.092000,0.498000,0.941000,127,126,127,tap
1764140910098,0,-0.061000,0.473000,0.885000,127,127,127,tap
1764140910119,199,-0.146000,0.496000,0.709000,126,127,127,tap
1764140910139,0,-0.112000,0.555000,0.761000,126,128,127,tap
1764140910160,0,-0.111000,0.571000,0.783000,126,128,127,tap
1764140910180,0,-0.138000,0.575000,0.764000,126,128,127,tap
1764140910201,0,-0.037000,0.550000,0.925000,127,127,127,tap
1764140910221,0,-0.075000,0.513000,0.863000,127,127,127,tap
1764140910243,0,-0.193000,0.461000,0.829000,127,128,126,tap
1764140910263,483,-0.128000,0.483000,0.940000,126,128,126,tap
1764140910283,0,-0.128000,0.517000,0.986000,126,128,126,tap
1764140910304,0,-0.115000,0.494000,0.956000,126,127,126,tap
1764140910324,0,-0.095000,0.488000,0.962000,126,128,126,tap
1764140910345,0,0.023000,0.537000,0.997000,127,127,127,tap
1764140910365,0,-0.052000,0.533000,0.903000,127,126,127,tap
1764140910385,284,-0.078000,0.533000,0.711000,127,128,126,tap
1764140910406,41,0.007000,0.547000,0.807000,126,128,126,tap
1764140910426,0,-0.022000,0.594000,0.851000,126,127,126,tap
1764140910448,0,-0.047000,0.557000,0.784000,126,127,127,tap
1764140910469,0,-0.010000,0.537000,0.947000,126,126,127,tap
1764140910490,0,-0.108000,0.560000,0.845000,127,126,127,tap
1764140910510,0,-0.085000,0.509000,0.806000,127,127,127,tap
1764140910533,0,-0.106000,0.514000,0.803000,126,127,126,tap
1764140910553,312,-0.111000,0.557000,0.857000,126,127,126,tap
1764140910575,0,-0.141000,0.539000,0.870000,126,127,126,tap
1764140910594,0,-0.133000,0.503000,0.887000,127,127,127,tap
1764140910616,0,-0.152000,0.501000,0.906000,126,127,127,tap
1764140910636,0,-0.125000,0.477000,0.887000,127,127,127,tap
1764140910656,0,-0.125000,0.477000,0.887000,127,127,127,tap
1764140910677,145,-0.074000,0.561000,0.855000,126,127,126,tap
1764140910698,0,-0.072000,0.588000,0.894000,126,127,126,tap
1764140910719,0,-0.061000,0.574000,0.880000,126,127,126,tap
1764140910739,0,-0.044000,0.567000,0.894000,126,127,126,tap
1764140910761,0,-0.043000,0.554000,0.939000,127,127,126,tap
1764140910781,0,-0.061000,0.513000,0.919000,127,127,127,tap
1764140910801,0,-0.066000,0.485000,0.873000,127,127,127,tap
1764140910821,266,-0.050000,0.434000,0.906000,126,127,126,tap
1764140910840,0,-0.069000,0.432000,0.949000,126,127,126,tap
1764140910861,0,-0.092000,0.417000,0.962000,126,127,126,tap
1764140910882,0,-0.102000,0.418000,0.975000,126,127,127,tap
1764140910901,0,-0.102000,0.418000,0.975000,126,127,127,tap
1764140910923,0,-0.116000,0.485000,0.908000,127,127,127,tap
1764140910943,0,-0.092000,0.520000,0.722000,127,127,127,tap
1764140910963,216,0.083000,0.621000,0.753000,126,126,126,tap
1764140910984,45,0.088000,0.692000,0.737000,126,126,127,tap
1764140911006,0,0.089000,0.681000,0.719000,126,125,127,tap
1764140911027,0,0.088000,0.660000,0.718000,126,125,127,tap
1764140911047,0,0.082000,0.635000,0.905000,126,125,127,tap
1764140911068,0,-0.083000,0.547000,0.871000,127,126,127,tap
1764140911088,0,-0.062000,0.453000,0.870000,127,127,126,tap
1764140911108,0,-0.010000,0.437000,0.927000,126,127,126,tap
1764140911129,0,-0.030000,0.463000,0.967000,126,127,126,tap
1764140911149,0,-0.037000,0.443000,0.971000,126,127,126,tap
1764140911169,0,-0.043000,0.462000,0.995000,126,127,126,tap
1764140911189,0,-0.085000,0.487000,0.948000,127,127,127,tap
1764140911211,0,-0.096000,0.477000,0.862000,127,127,127,tap
1764140911232,70,-0.066000,0.496000,0.864000,126,126,126,tap
1764140911253,309,-0.074000,0.529000,0.883000,126,126,126,tap
1764140911274,0,-0.087000,0.510000,0.897000,127,126,127,tap
1764140911295,0,-0.098000,0.497000,0.893000,126,126,127,tap
1764140911315,0,-0.079000,0.486000,0.946000,127,126,127,tap
1764140911336,0,-0.112000,0.452000,0.941000,127,127,127,tap
1764140911356,0,-0.105000,0.426000,0.923000,127,127,127,tap
1764140911377,516,-0.284000,0.487000,0.904000,126,127,126,tap
1764140911397,0,-0.273000,0.497000,0.966000,126,127,126,tap
1764140911417,0,-0.245000,0.502000,0.950000,126,127,127,tap
1764140911438,0,-0.233000,0.502000,0.959000,126,127,127,tap
1764140911459,0,-0.050000,0.455000,0.963000,127,127,127,tap
1764140911482,0,-0.053000,0.447000,0.933000,127,127,127,tap
1764140911503,0,-0.090000,0.417000,0.978000,126,127,126,tap
1764140911524,0,-0.029000,0.415000,1.046000,126,127,126,tap
1764140911544,0,-0.049000,0.434000,1.067000,126,127,126,tap
1764140911564,0,-0.041000,0.427000,1.060000,126,127,127,tap
1764140911585,0,-0.034000,0.430000,1.071000,126,127,127,tap
1764140911606,0,-0.041000,0.469000,0.963000,127,127,127,tap
1764140911626,0,-0.039000,0.483000,0.896000,127,127,126,tap
1764140911649,32,-0.029000,0.548000,0.897000,126,127,126,tap
1764140911669,378,-0.053000,0.573000,0.885000,126,126,127,tap
1764140911690,0,-0.070000,0.568000,0.892000,126,126,127,tap
1764140911711,0,-0.089000,0.576000,0.869000,126,126,127,tap
1764140911731,0,-0.091000,0.554000,0.910000,126,126,127,tap
1764140911752,0,-0.115000,0.500000,0.914000,127,127,127,tap
1764140911774,0,-0.093000,0.463000,0.918000,127,127,127,tap
1764140911795,465,-0.148000,0.427000,0.901000,126,127,126,tap
1764140911815,0,-0.165000,0.451000,0.916000,126,127,126,tap
1764140911835,0,-0.149000,0.421000,0.944000,126,126,127,tap
1764140911855,0,-0.159000,0.428000,0.955000,127,126,127,tap
1764140911875,0,-0.103000,0.470000,0.955000,127,127,127,tap
1764140911896,0,-0.081000,0.457000,0.928000,127,127,127,tap
1764140911917,0,-0.103000,0.417000,0.836000,126,128,126,tap
1764140911938,365,-0.058000,0.430000,0.884000,126,128,126,tap
1764140911958,0,-0.044000,0.441000,0.890000,126,128,127,tap
1764140911978,0,-0.035000,0.437000,0.882000,126,127,127,tap
1764140911999,0,-0.035000,0.435000,0.893000,126,127,127,tap
1764140912019,0,0.012000,0.481000,0.966000,127,127,127,tap
1764140912040,0,-0.047000,0.504000,0.880000,127,127,127,tap
1764140912060,202,-0.092000,0.511000,0.831000,127,127,127,tap
1764140912080,211,-0.001000,0.527000,0.893000,126,127,126,tap
1764140912100,0,-0.028000,0.543000,0.867000,126,126,127,tap
1764140912120,0,-0.030000,0.521000,0.904000,126,126,127,tap
1764140912141,0,-0.003000,0.511000,0.950000,126,126,127,tap
1764140912162,0,-0.091000,0.496000,0.894000,127,127,127,tap
1764140912183,0,-0.082000,0.472000,0.888000,127,127,126,tap
1764140912204,0,-0.068000,0.464000,0.870000,126,128,126,tap
1764140912225,472,0.012000,0.451000,0.945000,126,127,126,tap
1764140912246,0,0.002000,0.445000,0.953000,126,127,126,tap
1764140912267,0,-0.004000,0.439000,0.936000,126,127,126,tap
1764140912287,0,-0.021000,0.442000,0.943000,126,127,126,tap
1764140912307,0,-0.049000,0.456000,0.990000,126,127,127,tap
1764140912327,0,-0.119000,0.469000,0.908000,127,127,127,tap
1764140912347,0,-0.099000,0.472000,0.879000,127,127,126,tap
1764140912369,416,-0.173000,0.437000,0.957000,126,127,126,tap
1764140912389,0,-0.170000,0.416000,0.973000,126,127,126,tap
1764140912411,0,-0.164000,0.402000,0.983000,126,127,126,tap
1764140912432,0,-0.159000,0.397000,0.997000,127,127,126,tap
1764140912453,0,-0.051000,0.435000,0.990000,127,127,127,tap
1764140912473,0,-0.078000,0.431000,0.937000,127,127,127,tap
1764140912494,220,-0.087000,0.466000,0.751000,127,127,127,tap
1764140912514,97,-0.016000,0.494000,0.800000,126,127,126,tap
1764140912534,0,-0.010000,0.519000,0.794000,126,127,127,tap
1764140912554,0,-0.008000,0.521000,0.780000,126,126,127,tap
1764140912574,0,0.019000,0.518000,0.943000,127,126,126,tap
1764140912594,0,-0.036000,0.488000,0.912000,127,127,127,tap
1764140912614,0,-0.036000,0.488000,0.912000,127,127,127,tap
1764140912634,0,-0.099000,0.461000,0.923000,126,128,126,tap
1764140912654,416,-0.090000,0.452000,0.985000,126,128,126,tap
1764140912676,0,-0.108000,0.433000,1.001000,126,128,126,tap
1764140912697,0,-0.141000,0.442000,0.965000,126,127,126,tap
1764140912718,0,-0.139000,0.443000,0.980000,126,127,126,tap
1764140912739,0,-0.083000,0.434000,0.985000,127,127,127,tap
1764140912760,0,-0.087000,0.438000,0.935000,127,127,127,tap
1764140912782,17,-0.057000,0.474000,0.879000,127,127,126,tap
1764140912802,383,0.002000,0.528000,0.926000,126,126,126,tap
1764140912822,0,-0.009000,0.558000,0.904000,127,126,126,tap
1764140912843,0,-0.006000,0.550000,0.909000,126,126,126,tap
1764140912863,0,-0.025000,0.531000,0.945000,127,126,126,tap
1764140912884,0,-0.083000,0.488000,0.910000,127,127,127,tap
1764140912904,0,-0.085000,0.464000,0.918000,127,127,127,tap
1764140912925,0,-0.234000,0.446000,0.955000,126,128,126,tap
1764140912945,350,-0.177000,0.434000,0.993000,126,127,126,tap
1764140912966,13,-0.171000,0.424000,1.020000,126,127,126,tap
1764140912987,0,-0.166000,0.420000,1.007000,126,127,126,tap
1764140913007,0,-0.161000,0.422000,1.005000,126,127,126,tap
1764140913027,0,0.001000,0.444000,0.969000,127,127,127,tap
1764140930853,552,-0.170000,-0.029000,1.038000,127,127,127,rest_head
1764140930873,549,-0.172000,-0.030000,1.037000,127,127,127,rest_head
1764140930898,546,-0.172000,-0.029000,1.035000,126,127,127,rest_head
1764140930918,540,-0.166000,-0.017000,1.036000,126,127,127,rest_head
1764140930938,527,-0.163000,-0.019000,1.041000,126,127,127,rest_head
1764140930958,524,-0.161000,-0.018000,1.037000,126,127,127,rest_head
1764140930978,525,-0.159000,-0.017000,1.034000,126,127,127,rest_head
1764140930999,526,-0.159000,-0.018000,1.035000,126,127,127,rest_head
1764140931019,527,-0.156000,-0.020000,1.034000,126,127,127,rest_head
1764140931039,528,-0.156000,-0.020000,1.034000,126,127,127,rest_head
1764140931059,530,-0.158000,-0.022000,1.037000,126,127,127,rest_head
1764140931079,531,-0.158000,-0.021000,1.036000,126,127,127,rest_head
1764140931099,530,-0.158000,-0.021000,1.036000,126,127,127,rest_head
1764140931119,528,-0.158000,-0.021000,1.034000,126,127,127,rest_head
1764140931140,526,-0.157000,-0.020000,1.034000,126,127,127,rest_head
1764140931161,522,-0.157000,-0.020000,1.035000,126,127,127,rest_head
1764140931183,518,-0.158000,-0.020000,1.036000,126,127,127,rest_head
1764140931203,511,-0.158000,-0.019000,1.036000,126,127,127,rest_head
1764140931223,499,-0.158000,-0.020000,1.036000,126,127,127,rest_head
1764140931244,488,-0.158000,-0.020000,1.036000,126,127,127,rest_head
1764140931266,483,-0.162000,-0.021000,1.036000,126,127,127,rest_head
1764140931286,479,-0.162000,-0.023000,1.037000,126,127,127,rest_head
1764140931306,477,-0.163000,-0.022000,1.036000,126,127,127,rest_head
1764140931326,476,-0.163000,-0.021000,1.035000,126,127,127,rest_head
1764140931347,473,-0.158000,-0.022000,1.035000,126,127,127,rest_head
1764140931368,471,-0.157000,-0.022000,1.035000,126,127,127,rest_head
1764140931389,468,-0.157000,-0.022000,1.036000,126,127,127,rest_head
1764140931410,465,-0.157000,-0.021000,1.037000,126,127,127,rest_head
1764140931430,467,-0.157000,-0.021000,1.037000,126,127,127,rest_head
1764140931450,469,-0.157000,-0.021000,1.038000,126,127,127,rest_head
1764140931470,472,-0.157000,-0.020000,1.038000,126,127,127,rest_head
1764140931490,474,-0.157000,-0.021000,1.038000,126,127,127,rest_head
1764140931510,475,-0.157000,-0.021000,1.038000,126,127,127,rest_head
1764140931530,478,-0.156000,-0.022000,1.038000,126,127,127,rest_head
1764140931551,480,-0.155000,-0.021000,1.036000,126,127,127,rest_head
1764140931576,482,-0.156000,-0.021000,1.035000,126,127,127,rest_head
1764140931599,483,-0.156000,-0.021000,1.034000,126,127,127,rest_head
1764140931620,485,-0.157000,-0.020000,1.034000,126,127,127,rest_head
1764140931641,487,-0.159000,-0.020000,1.035000,126,127,127,rest_head
1764140931662,487,-0.158000,-0.021000,1.034000,126,127,127,rest_head
1764140931683,489,-0.157000,-0.021000,1.035000,126,127,127,rest_head
1764140931703,491,-0.156000,-0.021000,1.035000,126,127,126,rest_head
1764140931723,493,-0.155000,-0.021000,1.035000,126,127,126,rest_head
1764140931744,495,-0.156000,-0.021000,1.037000,126,127,127,rest_head
1764140931765,497,-0.157000,-0.021000,1.036000,126,127,127,rest_head
1764140931785,500,-0.157000,-0.021000,1.037000,126,127,127,rest_head
1764140931806,501,-0.157000,-0.021000,1.036000,126,127,126,rest_head
1764140931827,503,-0.157000,-0.022000,1.036000,126,127,126,rest_head
1764140931847,506,-0.156000,-0.022000,1.036000,126,127,126,rest_head
1764140931867,510,-0.155000,-0.022000,1.035000,126,127,126,rest_head
1764140931887,510,-0.158000,-0.022000,1.036000,126,127,127,rest_head
1764140931907,512,-0.158000,-0.023000,1.035000,126,127,127,rest_head
1764140931928,514,-0.159000,-0.022000,1.034000,126,127,127,rest_head
1764140931948,514,-0.160000,-0.022000,1.035000,126,127,127,rest_head
1764140931968,517,-0.161000,-0.021000,1.036000,126,127,127,rest_head
1764140931989,518,-0.160000,-0.022000,1.036000,126,127,127,rest_head
1764140932009,519,-0.158000,-0.020000,1.037000,126,127,126,rest_head
1764140932030,520,-0.158000,-0.020000,1.037000,126,127,126,rest_head
1764140932050,521,-0.156000,-0.020000,1.036000,126,127,126,rest_head
1764140932071,520,-0.156000,-0.019000,1.036000,126,127,126,rest_head
1764140932092,521,-0.157000,-0.020000,1.037000,126,127,126,rest_head
1764140932112,521,-0.158000,-0.021000,1.037000,126,127,126,rest_head
1764140932133,520,-0.158000,-0.022000,1.037000,126,127,127,rest_head
1764140932153,520,-0.158000,-0.022000,1.037000,126,127,127,rest_head
1764140932174,519,-0.158000,-0.022000,1.035000,126,127,127,rest_head
1764140932194,519,-0.158000,-0.022000,1.033000,126,127,127,rest_head
1764140932215,518,-0.157000,-0.022000,1.034000,126,127,127,rest_head
1764140932237,518,-0.158000,-0.021000,1.036000,126,127,127,rest_head
1764140932257,517,-0.158000,-0.021000,1.037000,126,127,127,rest_head
1764140932278,517,-0.159000,-0.021000,1.037000,126,127,127,rest_head
1764140932299,516,-0.159000,-0.022000,1.035000,126,127,127,rest_head
1764140932320,516,-0.159000,-0.021000,1.036000,126,127,127,rest_head
1764140932342,515,-0.158000,-0.022000,1.036000,126,127,127,rest_head
1764140932362,514,-0.158000,-0.023000,1.036000,126,127,127,rest_head
1764140932382,514,-0.157000,-0.023000,1.038000,126,127,127,rest_head
1764140932403,512,-0.156000,-0.022000,1.038000,126,127,127,rest_head
1764140932423,511,-0.156000,-0.022000,1.037000,126,127,127,rest_head
1764140932444,510,-0.156000,-0.022000,1.036000,126,127,127,rest_head
1764140932464,509,-0.157000,-0.022000,1.037000,126,127,127,rest_head
1764140932485,509,-0.159000,-0.023000,1.037000,126,127,127,rest_head
1764140932506,507,-0.159000,-0.022000,1.036000,126,127,127,rest_head
1764140932527,506,-0.159000,-0.021000,1.036000,126,127,127,rest_head
1764140932548,506,-0.158000,-0.021000,1.034000,126,127,127,rest_head
1764140932570,505,-0.157000,-0.021000,1.033000,126,127,126,rest_head
1764140932591,503,-0.157000,-0.022000,1.033000,126,127,126,rest_head
1764140932612,502,-0.157000,-0.022000,1.035000,126,127,126,rest_head
1764140932633,502,-0.157000,-0.023000,1.036000,126,127,126,rest_head
1764140932653,502,-0.156000,-0.023000,1.038000,126,127,126,rest_head
1764140932675,500,-0.155000,-0.022000,1.037000,126,127,127,rest_head
1764140932695,501,-0.157000,-0.022000,1.036000,126,127,127,rest_head
1764140932715,500,-0.157000,-0.023000,1.037000,126,127,127,rest_head
1764140932735,499,-0.158000,-0.023000,1.037000,126,127,127,rest_head
1764140932756,497,-0.159000,-0.022000,1.036000,126,127,127,rest_head
1764140932777,497,-0.159000,-0.022000,1.036000,126,127,127,rest_head
1764140932799,496,-0.159000,-0.022000,1.036000,126,127,127,rest_head
1764140932819,495,-0.159000,-0.022000,1.036000,126,127,127,rest_head
1764140932839,494,-0.158000,-0.021000,1.036000,126,127,127,rest_head
1764140932859,494,-0.158000,-0.022000,1.036000,126,127,127,rest_head
1764140932883,493,-0.157000,-0.021000,1.035000,126,127,126,rest_head
1764140932903,492,-0.159000,-0.020000,1.035000,126,127,126,rest_head
1764140932924,491,-0.159000,-0.021000,1.036000,126,127,126,rest_head
1764140932944,492,-0.158000,-0.022000,1.036000,126,127,127,rest_head
1764140932965,492,-0.158000,-0.022000,1.037000,126,127,127,rest_head
1764140932986,492,-0.158000,-0.022000,1.037000,126,127,127,rest_head
1764140933007,492,-0.157000,-0.021000,1.038000,126,127,127,rest_head
1764140933028,492,-0.157000,-0.020000,1.038000,126,127,127,rest_head
1764140933050,491,-0.157000,-0.020000,1.037000,126,127,127,rest_head
1764140933071,490,-0.156000,-0.020000,1.036000,126,127,127,rest_head
1764140933091,490,-0.155000,-0.021000,1.036000,126,127,127,rest_head
1764140933113,490,-0.156000,-0.022000,1.036000,126,127,127,rest_head
1764140933134,490,-0.156000,-0.023000,1.036000,126,127,127,rest_head
1764140933155,491,-0.157000,-0.023000,1.036000,126,127,126,rest_head
1764140933176,490,-0.159000,-0.023000,1.037000,126,127,127,rest_head
1764140933197,489,-0.159000,-0.022000,1.037000,126,127,127,rest_head
1764140933218,489,-0.159000,-0.021000,1.037000,126,127,126,rest_head
1764140933238,489,-0.157000,-0.021000,1.038000,126,127,126,rest_head
1764140933259,489,-0.157000,-0.022000,1.038000,126,127,126,rest_head
1764140933279,489,-0.156000,-0.022000,1.037000,126,127,126,rest_head
1764140933300,489,-0.157000,-0.020000,1.038000,126,127,126,rest_head
1764140933320,489,-0.158000,-0.020000,1.037000,126,127,127,rest_head
1764140933341,490,-0.160000,-0.019000,1.035000,126,127,127,rest_head
1764140933362,489,-0.159000,-0.020000,1.035000,126,127,127,rest_head
1764140933382,489,-0.157000,-0.021000,1.035000,126,127,127,rest_head
1764140933402,489,-0.155000,-0.022000,1.035000,126,127,127,rest_head
1764140933423,489,-0.154000,-0.022000,1.036000,126,127,126,rest_head
1764140933444,489,-0.153000,-0.023000,1.037000,126,127,126,rest_head
1764140933465,489,-0.154000,-0.023000,1.036000,126,127,126,rest_head
1764140933485,489,-0.155000,-0.023000,1.035000,126,127,126,rest_head
1764140933505,490,-0.158000,-0.022000,1.035000,126,127,126,rest_head
1764140933525,490,-0.160000,-0.021000,1.036000,126,127,127,rest_head
1764140933546,490,-0.160000,-0.021000,1.036000,126,127,127,rest_head
1764140933567,490,-0.158000,-0.022000,1.036000,126,127,127,rest_head
1764140933587,489,-0.157000,-0.022000,1.036000,126,127,127,rest_head
1764140933608,490,-0.154000,-0.023000,1.036000,126,127,127,rest_head
1764140933629,491,-0.155000,-0.024000,1.036000,126,127,127,rest_head
1764140933650,491,-0.157000,-0.022000,1.036000,126,127,126,rest_head
1764140933671,490,-0.158000,-0.021000,1.036000,126,127,126,rest_head
1764140933691,490,-0.159000,-0.021000,1.035000,126,127,127,rest_head
1764140933711,491,-0.159000,-0.021000,1.036000,126,127,127,rest_head
1764140933731,491,-0.159000,-0.021000,1.036000,126,127,127,rest_head
1764140933752,491,-0.158000,-0.022000,1.036000,126,127,127,rest_head
1764140933774,491,-0.157000,-0.022000,1.036000,126,127,127,rest_head
1764140933794,491,-0.157000,-0.022000,1.036000,126,127,127,rest_head
1764140933815,492,-0.157000,-0.021000,1.035000,126,127,127,rest_head
1764140933835,491,-0.156000,-0.021000,1.033000,126,127,127,rest_head
1764140933855,491,-0.157000,-0.021000,1.033000,126,127,127,rest_head
1764140933875,491,-0.157000,-0.024000,1.032000,126,127,127,rest_head
1764140933896,491,-0.158000,-0.023000,1.039000,126,127,127,rest_head
1764140933916,489,-0.156000,-0.018000,1.034000,126,127,127,rest_head
1764140933937,490,-0.156000,-0.020000,1.027000,126,127,127,rest_head
1764140933958,491,-0.157000,-0.022000,1.036000,126,127,127,rest_head
1764140933982,490,-0.156000,-0.020000,1.038000,126,127,126,rest_head
1764140934003,490,-0.156000,-0.022000,1.028000,126,127,127,rest_head
1764140934023,491,-0.157000,-0.026000,1.035000,126,127,127,rest_head
1764140934043,491,-0.158000,-0.021000,1.032000,127,127,127,rest_head
1764140934063,491,-0.160000,-0.020000,1.033000,126,127,127,rest_head
1764140934083,492,-0.158000,-0.020000,1.037000,126,127,127,rest_head
1764140934103,492,-0.159000,-0.021000,1.035000,126,127,127,rest_head
1764140934123,492,-0.157000,-0.022000,1.036000,126,127,127,rest_head
1764140934146,493,-0.155000,-0.022000,1.039000,126,127,127,rest_head
1764140934168,493,-0.154000,-0.022000,1.037000,126,127,126,rest_head
1764140934190,493,-0.156000,-0.021000,1.035000,126,127,127,rest_head
1764140934210,493,-0.156000,-0.021000,1.035000,126,127,127,rest_head
1764140934230,493,-0.159000,-0.021000,1.035000,126,127,126,rest_head
1764140934251,493,-0.160000,-0.022000,1.035000,126,127,126,rest_head
1764140934271,493,-0.161000,-0.022000,1.036000,126,127,126,rest_head
1764140934291,493,-0.158000,-0.022000,1.036000,126,127,127,rest_head
1764140934312,492,-0.157000,-0.023000,1.035000,126,127,127,rest_head
1764140934333,492,-0.157000,-0.021000,1.036000,126,127,127,rest_head
1764140934354,492,-0.156000,-0.022000,1.034000,126,127,127,rest_head
1764140934375,493,-0.157000,-0.022000,1.033000,126,127,127,rest_head
1764140934395,491,-0.159000,-0.022000,1.035000,126,127,127,rest_head
1764140934416,489,-0.159000,-0.021000,1.035000,126,127,127,rest_head
1764140934436,489,-0.158000,-0.022000,1.033000,126,127,127,rest_head
1764140934457,489,-0.157000,-0.021000,1.035000,126,127,127,rest_head
1764140934477,489,-0.155000,-0.022000,1.034000,126,127,127,rest_head
1764140934497,486,-0.155000,-0.023000,1.042000,126,127,127,rest_head
1764140934517,487,-0.153000,-0.018000,1.042000,126,127,126,rest_head
1764140934537,487,-0.152000,-0.018000,1.033000,126,127,126,rest_head
1764140934557,488,-0.154000,-0.022000,1.044000,126,127,126,rest_head
1764140934578,486,-0.156000,-0.021000,1.032000,126,127,126,rest_head
1764140934598,487,-0.157000,-0.024000,1.032000,126,127,127,rest_head
1764140934620,487,-0.159000,-0.022000,1.042000,126,127,127,rest_head
1764140934641,488,-0.159000,-0.018000,1.035000,127,127,127,rest_head
