timestamp_ms,pressure,ax,ay,az,gx,gy,gz,label
1764138703874,0,-0.103000,-0.018000,1.042000,126,127,127,idle
1764138703895,0,-0.104000,-0.018000,1.044000,126,127,127,idle
1764138703916,0,-0.103000,-0.018000,1.043000,126,127,127,idle
1764138703936,0,-0.104000,-0.019000,1.042000,126,127,127,idle
1764138703957,0,-0.105000,-0.020000,1.041000,126,127,127,idle
1764138703979,0,-0.106000,-0.018000,1.042000,126,127,127,idle
1764138703999,0,-0.106000,-0.018000,1.042000,126,127,127,idle
1764138704020,0,-0.106000,-0.018000,1.042000,126,127,127,idle
1764138704041,0,-0.105000,-0.018000,1.041000,126,127,127,idle
1764138704061,0,-0.104000,-0.018000,1.042000,126,127,127,idle
1764138704081,0,-0.103000,-0.019000,1.043000,126,127,127,idle
1764138704101,0,-0.103000,-0.020000,1.043000,126,127,126,idle
1764138704121,0,-0.103000,-0.020000,1.043000,126,127,126,idle
1764138704142,0,-0.103000,-0.020000,1.043000,126,127,126,idle
1764138704163,0,-0.103000,-0.020000,1.042000,126,127,126,idle
1764138704183,0,-0.105000,-0.020000,1.042000,126,127,126,idle
1764138704204,0,-0.104000,-0.020000,1.041000,126,127,126,idle
1764138704225,0,-0.104000,-0.020000,1.042000,126,127,126,idle
1764138704245,0,-0.104000,-0.019000,1.042000,126,127,126,idle
1764138704266,0,-0.106000,-0.020000,1.041000,126,127,126,idle
1764138704286,0,-0.105000,-0.021000,1.041000,126,127,126,idle
1764138704307,0,-0.105000,-0.021000,1.042000,126,127,126,idle
1764138704327,0,-0.106000,-0.020000,1.042000,126,127,126,idle
1764138704348,0,-0.106000,-0.020000,1.043000,126,127,126,idle
1764138704368,0,-0.104000,-0.020000,1.043000,126,127,126,idle
1764138704389,0,-0.105000,-0.019000,1.043000,126,127,127,idle
1764138704408,0,-0.105000,-0.019000,1.043000,126,127,127,idle
1764138704429,0,-0.103000,-0.020000,1.043000,126,127,127,idle
1764138704449,0,-0.104000,-0.019000,1.042000,126,127,127,idle
1764138704470,0,-0.105000,-0.020000,1.042000,126,127,126,idle
1764138704491,0,-0.103000,-0.020000,1.042000,126,127,126,idle
1764138704513,0,-0.103000,-0.020000,1.041000,126,127,126,idle
1764138704532,0,-0.103000,-0.021000,1.041000,126,127,127,idle
1764138704552,0,-0.103000,-0.020000,1.042000,126,127,127,idle
1764138704572,0,-0.103000,-0.020000,1.043000,126,127,127,idle
1764138704592,0,-0.103000,-0.020000,1.043000,126,127,127,idle
1764138704612,0,-0.104000,-0.020000,1.042000,126,127,127,idle
1764138704633,0,-0.104000,-0.020000,1.042000,126,127,127,idle
1764138704653,0,-0.104000,-0.020000,1.041000,126,127,126,idle
1764138704674,0,-0.104000,-0.019000,1.042000,126,127,126,idle
1764138704694,0,-0.105000,-0.020000,1.044000,126,127,126,idle
1764138704715,0,-0.105000,-0.020000,1.044000,126,127,126,idle
1764138704736,0,-0.106000,-0.020000,1.043000,126,127,127,idle
1764138704757,0,-0.105000,-0.021000,1.043000,126,127,127,idle
1764138704779,0,-0.104000,-0.020000,1.042000,126,127,127,idle
1764138704800,0,-0.104000,-0.021000,1.042000,126,127,127,idle
1764138704820,0,-0.104000,-0.021000,1.042000,126,127,127,idle
1764138704841,0,-0.104000,-0.021000,1.042000,126,127,127,idle
1764138704861,0,-0.104000,-0.020000,1.042000,126,127,126,idle
1764138704881,0,-0.105000,-0.021000,1.043000,126,127,126,idle
1764138704902,0,-0.105000,-0.020000,1.043000,126,127,127,idle
1764138704922,0,-0.105000,-0.021000,1.042000,126,127,127,idle
1764138704943,0,-0.105000,-0.021000,1.042000,126,127,127,idle
1764138704962,0,-0.104000,-0.020000,1.042000,126,127,127,idle
1764138704983,0,-0.105000,-0.020000,1.042000,126,127,127,idle
1764138705004,0,-0.104000,-0.019000,1.042000,126,127,127,idle
1764138705025,0,-0.103000,-0.019000,1.042000,126,127,127,idle
1764138705046,0,-0.103000,-0.018000,1.043000,126,127,127,idle
1764138705067,0,-0.104000,-0.019000,1.041000,126,127,127,idle
1764138705087,0,-0.104000,-0.020000,1.042000,126,127,127,idle
1764138705108,0,-0.104000,-0.020000,1.043000,126,127,127,idle
1764138705128,0,-0.104000,-0.020000,1.043000,126,127,127,idle
1764138705149,0,-0.104000,-0.020000,1.044000,126,127,127,idle
1764138705169,0,-0.103000,-0.020000,1.044000,126,127,127,idle
1764138705190,0,-0.104000,-0.019000,1.043000,126,127,126,idle
1764138705210,0,-0.104000,-0.019000,1.044000,126,127,126,idle
1764138705231,0,-0.104000,-0.019000,1.044000,126,127,126,idle
1764138705252,0,-0.105000,-0.020000,1.044000,126,127,127,idle
1764138705272,0,-0.105000,-0.019000,1.044000,126,127,127,idle
1764138705293,0,-0.106000,-0.020000,1.044000,126,127,127,idle
1764138705313,0,-0.106000,-0.021000,1.044000,126,127,127,idle
1764138705335,0,-0.105000,-0.020000,1.043000,126,127,127,idle
1764138705355,0,-0.105000,-0.019000,1.042000,126,127,127,idle
1764138705375,0,-0.104000,-0.019000,1.041000,126,127,127,idle
1764138705395,0,-0.104000,-0.019000,1.041000,126,127,127,idle
1764138705416,0,-0.105000,-0.017000,1.042000,126,127,126,idle
1764138705437,0,-0.104000,-0.018000,1.042000,126,127,126,idle
1764138705457,0,-0.104000,-0.019000,1.043000,126,127,126,idle
1764138705481,0,-0.104000,-0.020000,1.043000,126,127,127,idle
1764138705502,0,-0.103000,-0.021000,1.043000,126,127,127,idle
1764138705522,0,-0.103000,-0.021000,1.043000,126,127,127,idle
1764138705543,0,-0.104000,-0.021000,1.044000,126,127,127,idle
1764138705564,0,-0.104000,-0.021000,1.044000,126,127,127,idle
1764138705584,0,-0.104000,-0.020000,1.044000,126,127,127,idle
1764138705604,0,-0.104000,-0.020000,1.044000,126,127,127,idle
1764138705624,0,-0.105000,-0.020000,1.043000,126,127,127,idle
1764138705645,0,-0.105000,-0.021000,1.043000,126,127,126,idle
1764138705666,0,-0.105000,-0.021000,1.043000,126,127,126,idle
1764138705686,0,-0.106000,-0.021000,1.042000,126,127,126,idle
1764138705707,0,-0.104000,-0.021000,1.043000,126,127,127,idle
1764138705728,0,-0.105000,-0.020000,1.044000,126,127,127,idle
1764138705749,0,-0.104000,-0.020000,1.044000,126,127,127,idle
1764138705769,0,-0.104000,-0.020000,1.044000,126,127,127,idle
1764138705790,0,-0.103000,-0.021000,1.043000,126,127,127,idle
1764138705810,0,-0.104000,-0.020000,1.043000,126,127,126,idle
1764138705831,0,-0.103000,-0.020000,1.042000,126,127,126,idle
1764138705851,0,-0.104000,-0.020000,1.042000,126,127,126,idle
1764138705872,0,-0.104000,-0.018000,1.043000,126,127,127,idle
1764138705892,0,-0.104000,-0.019000,1.043000,126,127,127,idle
1764138705912,0,-0.103000,-0.020000,1.044000,126,127,127,idle
1764138705932,0,-0.103000,-0.020000,1.044000,126,127,127,idle
1764138705953,0,-0.102000,-0.021000,1.043000,126,127,126,idle
1764138705974,0,-0.103000,-0.021000,1.043000,126,127,126,idle
1764138705995,0,-0.105000,-0.020000,1.041000,126,127,126,idle
1764138706016,0,-0.106000,-0.020000,1.042000,126,127,126,idle
1764138706037,0,-0.107000,-0.019000,1.042000,126,127,126,idle
1764138706057,0,-0.110000,-0.018000,1.042000,126,127,127,idle
1764138706077,0,-0.109000,-0.017000,1.043000,126,127,126,idle
1764138706098,0,-0.108000,-0.018000,1.044000,126,127,127,idle
1764138706119,0,-0.106000,-0.017000,1.045000,126,127,127,idle
1764138706140,0,-0.101000,-0.021000,1.043000,126,127,127,idle
1764138706161,0,-0.102000,-0.021000,1.041000,126,127,127,idle
1764138706183,0,-0.101000,-0.021000,1.042000,126,127,127,idle
1764138706204,0,-0.103000,-0.020000,1.042000,126,127,127,idle
1764138706225,0,-0.106000,-0.019000,1.041000,126,127,127,idle
1764138706245,0,-0.107000,-0.019000,1.041000,126,127,127,idle
1764138706265,0,-0.106000,-0.019000,1.042000,126,127,127,idle
1764138706286,0,-0.106000,-0.020000,1.042000,126,127,127,idle
1764138706307,0,-0.104000,-0.021000,1.043000,126,127,127,idle
1764138706326,0,-0.102000,-0.022000,1.044000,126,127,127,idle
1764138706347,0,-0.102000,-0.021000,1.043000,126,127,126,idle
1764138706367,0,-0.103000,-0.021000,1.043000,126,127,126,idle
1764138706388,0,-0.105000,-0.020000,1.041000,126,127,126,idle
1764138706408,0,-0.106000,-0.019000,1.041000,126,127,126,idle
1764138706429,0,-0.107000,-0.018000,1.042000,126,127,127,idle
1764138706450,0,-0.108000,-0.018000,1.043000,126,127,127,idle
1764138706471,0,-0.107000,-0.018000,1.042000,126,127,127,idle
1764138706493,0,-0.106000,-0.019000,1.043000,126,127,127,idle
1764138706513,0,-0.105000,-0.020000,1.042000,126,127,127,idle
1764138706533,0,-0.103000,-0.021000,1.042000,126,127,127,idle
1764138706554,0,-0.102000,-0.021000,1.042000,126,127,127,idle
1764138706574,0,-0.103000,-0.021000,1.043000,126,127,127,idle
1764138706595,0,-0.103000,-0.020000,1.043000,126,127,127,idle
1764138706619,0,-0.105000,-0.018000,1.044000,126,127,127,idle
1764138706640,0,-0.106000,-0.019000,1.043000,126,127,127,idle
1764138706661,0,-0.106000,-0.018000,1.042000,126,127,127,idle
1764138706681,0,-0.105000,-0.018000,1.042000,126,127,127,idle
1764138706702,0,-0.104000,-0.019000,1.043000,126,127,127,idle
1764138706722,0,-0.103000,-0.021000,1.043000,126,127,126,idle
1764138706742,0,-0.102000,-0.020000,1.044000,126,127,126,idle
1764138706763,0,-0.101000,-0.020000,1.044000,126,127,126,idle
1764138706784,0,-0.101000,-0.019000,1.044000,126,127,126,idle
1764138706804,0,-0.103000,-0.019000,1.043000,126,127,126,idle
1764138706824,0,-0.104000,-0.018000,1.042000,126,127,127,idle
1764138706844,0,-0.105000,-0.019000,1.043000,126,127,127,idle
1764138706865,0,-0.105000,-0.019000,1.043000,126,127,127,idle
1764138706886,0,-0.105000,-0.019000,1.044000,126,127,127,idle
1764138706908,0,-0.104000,-0.020000,1.044000,126,127,127,idle
1764138706927,0,-0.104000,-0.020000,1.045000,126,127,127,idle
1764138706948,0,-0.104000,-0.020000,1.044000,126,127,127,idle
1764138706977,0,-0.104000,-0.020000,1.044000,126,127,127,idle
1764138706997,0,-0.104000,-0.020000,1.044000,126,127,127,idle
1764138707019,0,-0.103000,-0.021000,1.043000,126,127,127,idle
1764138707041,0,-0.103000,-0.020000,1.043000,126,127,127,idle
1764138707063,0,-0.104000,-0.020000,1.043000,126,127,127,idle
1764138707083,0,-0.103000,-0.019000,1.043000,126,127,126,idle
1764138707103,0,-0.104000,-0.019000,1.044000,126,127,126,idle
1764138707123,0,-0.105000,-0.019000,1.044000,126,127,126,idle
1764138707144,0,-0.105000,-0.020000,1.045000,126,127,127,idle
1764138707164,0,-0.105000,-0.020000,1.044000,126,127,126,idle
1764138707185,0,-0.106000,-0.021000,1.043000,126,127,127,idle
1764138707206,0,-0.106000,-0.019000,1.044000,126,127,127,idle
1764138707227,0,-0.105000,-0.020000,1.043000,126,127,127,idle
1764138707249,0,-0.104000,-0.020000,1.043000,126,127,127,idle
1764138707270,0,-0.104000,-0.020000,1.043000,126,127,127,idle
1764138707291,0,-0.103000,-0.020000,1.042000,126,127,127,idle
1764138707312,0,-0.103000,-0.021000,1.042000,126,127,127,idle
1764138707333,0,-0.103000,-0.020000,1.043000,126,127,127,idle
1764138707353,0,-0.103000,-0.020000,1.042000,126,127,127,idle
1764138707373,0,-0.103000,-0.020000,1.043000,126,127,126,idle
1764138707394,0,-0.104000,-0.021000,1.043000,126,127,126,idle
1764138707415,0,-0.104000,-0.020000,1.043000,126,127,126,idle
1764138707436,0,-0.104000,-0.020000,1.043000,126,127,126,idle
1764138707457,0,-0.104000,-0.021000,1.042000,126,127,127,idle
1764138707478,0,-0.104000,-0.020000,1.042000,126,127,127,idle
1764138707499,0,-0.103000,-0.021000,1.041000,126,127,127,idle
1764138707519,0,-0.102000,-0.020000,1.042000,126,127,127,idle
1764138707539,0,-0.102000,-0.021000,1.042000,126,127,127,idle
1764138707559,0,-0.102000,-0.020000,1.043000,126,127,127,idle
1764138707580,0,-0.101000,-0.020000,1.043000,126,127,127,idle
1764138707601,0,-0.103000,-0.020000,1.042000,126,127,127,idle
1764138707622,0,-0.103000,-0.020000,1.042000,126,127,127,idle
1764138707642,0,-0.102000,-0.020000,1.042000,126,127,126,idle
1764138707663,0,-0.103000,-0.020000,1.042000,126,127,127,idle
1764138707684,0,-0.102000,-0.020000,1.043000,126,127,126,idle
1764138707705,0,-0.103000,-0.021000,1.043000,126,127,127,idle
1764138707726,0,-0.102000,-0.020000,1.043000,126,127,127,idle
1764138707746,0,-0.102000,-0.020000,1.042000,126,127,127,idle
1764138707767,0,-0.102000,-0.020000,1.042000,126,127,127,idle
1764138707787,0,-0.103000,-0.020000,1.042000,126,127,127,idle
1764138707807,0,-0.104000,-0.019000,1.042000,126,127,126,idle
1764138707828,0,-0.103000,-0.020000,1.043000,126,127,127,idle
1764138707848,0,-0.104000,-0.021000,1.043000,126,127,126,idle
1764138707869,0,-0.104000,-0.020000,1.043000,126,127,126,idle
1764138707889,0,-0.102000,-0.020000,1.043000,126,127,127,idle
1764138707910,0,-0.104000,-0.020000,1.043000,126,127,126,idle
1764138707931,0,-0.103000,-0.020000,1.043000,126,127,127,idle
1764138707952,0,-0.102000,-0.020000,1.044000,126,127,127,idle
1764138707973,0,-0.103000,-0.020000,1.044000,126,127,127,idle
1764138707994,0,-0.105000,-0.020000,1.044000,126,127,127,idle
1764138708014,0,-0.105000,-0.020000,1.044000,126,127,127,idle
1764138708035,0,-0.106000,-0.019000,1.043000,126,127,127,idle
1764138708055,0,-0.106000,-0.018000,1.042000,126,127,127,idle
1764138708075,0,-0.105000,-0.019000,1.040000,126,127,127,idle
1764138708096,0,-0.103000,-0.019000,1.040000,126,127,126,idle
1764138708116,0,-0.103000,-0.020000,1.041000,126,127,126,idle
1764138708137,0,-0.103000,-0.020000,1.043000,126,127,126,idle
1764138708156,0,-0.103000,-0.020000,1.043000,126,127,126,idle
1764138708176,0,-0.104000,-0.021000,1.044000,126,127,127,idle
1764138708197,0,-0.104000,-0.020000,1.044000,126,127,127,idle
1764138708218,0,-0.105000,-0.021000,1.044000,126,127,127,idle
1764138708240,0,-0.104000,-0.021000,1.042000,126,127,126,idle
1764138708261,0,-0.105000,-0.020000,1.042000,126,127,126,idle
1764138708281,0,-0.105000,-0.020000,1.042000,126,127,126,idle
1764138708302,0,-0.105000,-0.020000,1.042000,126,127,126,idle
1764138708321,0,-0.105000,-0.020000,1.042000,126,127,127,idle
1764138708342,0,-0.105000,-0.021000,1.042000,126,127,126,idle
1764138708361,0,-0.105000,-0.021000,1.043000,126,127,127,idle
1764138708381,0,-0.105000,-0.021000,1.043000,126,127,127,idle
1764138708402,0,-0.104000,-0.021000,1.044000,126,127,127,idle
1764138708423,0,-0.103000,-0.019000,1.043000,126,127,127,idle
1764138708444,0,-0.104000,-0.019000,1.043000,126,127,127,idle
1764138708464,0,-0.104000,-0.019000,1.043000,126,127,127,idle
1764138708485,0,-0.103000,-0.019000,1.042000,126,127,126,idle
1764138708507,0,-0.104000,-0.018000,1.043000,126,127,126,idle
1764138708527,0,-0.104000,-0.018000,1.043000,126,127,127,idle
1764138708548,0,-0.104000,-0.019000,1.043000,126,127,126,idle
1764138708569,0,-0.104000,-0.018000,1.043000,126,127,127,idle
1764138708589,0,-0.104000,-0.018000,1.043000,126,127,127,idle
1764138708610,0,-0.104000,-0.020000,1.042000,126,127,127,idle
1764138708630,0,-0.105000,-0.020000,1.042000,126,127,127,idle
1764138708651,0,-0.105000,-0.020000,1.041000,126,127,127,idle
1764138708671,0,-0.104000,-0.019000,1.042000,126,127,127,idle
1764138708692,0,-0.105000,-0.019000,1.042000,126,127,127,idle
1764138708713,0,-0.105000,-0.019000,1.042000,126,127,127,idle
1764138708733,0,-0.105000,-0.019000,1.044000,126,127,127,idle
1764138708754,0,-0.105000,-0.019000,1.043000,126,127,127,idle
1764138708774,0,-0.106000,-0.020000,1.043000,126,127,127,idle
1764138708794,0,-0.105000,-0.019000,1.044000,126,127,127,idle
1764138708815,0,-0.105000,-0.020000,1.043000,126,127,127,idle
1764138708835,0,-0.105000,-0.020000,1.042000,126,127,127,idle
1764138708856,0,-0.105000,-0.019000,1.043000,126,127,126,idle
1764138708876,0,-0.105000,-0.019000,1.043000,126,127,126,idle
1764138708897,0,-0.105000,-0.020000,1.042000,126,127,127,idle
1764138708917,0,-0.105000,-0.020000,1.042000,126,127,127,idle
1764138708938,0,-0.105000,-0.021000,1.042000,126,127,127,idle
1764138708958,0,-0.104000,-0.021000,1.042000,126,127,127,idle
1764138708979,0,-0.104000,-0.019000,1.042000,126,127,126,idle
1764138709000,0,-0.104000,-0.019000,1.043000,126,127,126,idle
1764138709020,0,-0.103000,-0.019000,1.043000,126,127,126,idle
1764138709041,0,-0.104000,-0.019000,1.042000,126,127,127,idle
1764138709063,0,-0.104000,-0.020000,1.043000,126,127,127,idle
1764138709083,0,-0.104000,-0.021000,1.043000,126,127,127,idle
1764138709104,0,-0.105000,-0.019000,1.043000,126,127,127,idle
1764138709124,0,-0.105000,-0.019000,1.044000,126,127,126,idle
1764138709144,0,-0.104000,-0.019000,1.044000,126,127,126,idle
1764138709164,0,-0.104000,-0.019000,1.042000,126,127,126,idle
1764138709185,0,-0.103000,-0.019000,1.042000,126,127,126,idle
1764138709205,0,-0.104000,-0.020000,1.043000,126,127,126,idle
1764138709226,0,-0.104000,-0.020000,1.042000,126,127,127,idle
1764138709247,0,-0.105000,-0.020000,1.042000,126,127,127,idle
1764138709267,0,-0.106000,-0.019000,1.041000,126,127,127,idle
1764138709288,0,-0.107000,-0.018000,1.042000,126,127,126,idle
1764138709309,0,-0.107000,-0.018000,1.042000,126,127,126,idle
1764138709330,0,-0.107000,-0.018000,1.043000,126,127,126,idle
1764138709351,0,-0.107000,-0.018000,1.043000,126,127,126,idle
1764138709371,0,-0.106000,-0.019000,1.044000,126,127,126,idle
1764138709392,0,-0.106000,-0.019000,1.044000,126,127,126,idle
1764138709412,0,-0.105000,-0.020000,1.043000,126,127,126,idle
1764138709433,0,-0.105000,-0.020000,1.044000,126,127,126,idle
1764138709454,0,-0.105000,-0.021000,1.044000,126,127,126,idle
1764138709475,0,-0.106000,-0.021000,1.044000,126,127,126,idle
1764138709496,0,-0.104000,-0.021000,1.045000,126,127,126,idle
1764138709516,0,-0.104000,-0.020000,1.045000,126,127,127,idle
1764138709536,0,-0.104000,-0.020000,1.046000,126,127,127,idle
1764138709556,0,-0.104000,-0.019000,1.045000,126,127,127,idle
1764138709577,0,-0.104000,-0.020000,1.045000,126,127,126,idle
1764138709597,0,-0.104000,-0.019000,1.043000,126,127,126,idle
1764138709619,0,-0.104000,-0.019000,1.043000,126,127,126,idle
1764138709639,0,-0.103000,-0.019000,1.043000,126,127,126,idle
1764138709660,0,-0.103000,-0.018000,1.043000,126,127,127,idle
1764138709680,0,-0.103000,-0.019000,1.044000,126,127,126,idle
1764138709702,0,-0.104000,-0.019000,1.044000,126,127,127,idle
1764138709723,0,-0.104000,-0.019000,1.043000,126,127,127,idle
1764138709744,0,-0.105000,-0.019000,1.044000,126,127,127,idle
1764138709764,0,-0.105000,-0.018000,1.043000,126,127,127,idle
1764138709785,0,-0.104000,-0.019000,1.043000,126,127,127,idle
1764138709805,0,-0.103000,-0.020000,1.042000,126,127,127,idle
1764138709825,0,-0.102000,-0.021000,1.043000,126,127,127,idle
1764138709845,0,-0.101000,-0.022000,1.043000,126,127,127,idle
1764138709865,0,-0.102000,-0.021000,1.043000,126,127,127,idle
1764138711936,0,-0.107000,-0.019000,1.047000,127,127,127,idle
1764138711956,0,-0.106000,-0.016000,1.045000,126,127,126,idle
1764138711976,0,-0.103000,-0.019000,1.045000,126,127,127,idle
1764138711996,0,-0.103000,-0.022000,1.038000,126,127,127,idle
1764138712017,0,-0.100000,-0.023000,1.038000,126,127,127,idle
1764138712037,0,-0.102000,-0.021000,1.044000,126,127,127,idle
1764138712058,0,-0.103000,-0.021000,1.038000,126,127,127,idle
1764138712079,0,-0.106000,-0.021000,1.038000,126,127,127,idle
1764138712100,0,-0.107000,-0.018000,1.044000,126,127,127,idle
1764138712121,0,-0.106000,-0.017000,1.044000,126,127,127,idle
1764138712141,0,-0.104000,-0.020000,1.041000,126,127,126,idle
1764138712162,0,-0.104000,-0.021000,1.040000,126,127,126,idle
1764138712182,0,-0.102000,-0.021000,1.041000,126,127,126,idle
1764138712202,0,-0.100000,-0.020000,1.043000,126,127,126,idle
1764138712222,0,-0.102000,-0.020000,1.042000,126,127,127,idle
1764138712243,0,-0.104000,-0.019000,1.041000,126,127,127,idle
1764138712263,0,-0.105000,-0.018000,1.043000,126,127,127,idle
1764138712283,0,-0.105000,-0.018000,1.043000,126,127,127,idle
1764138712303,0,-0.105000,-0.019000,1.043000,126,127,127,idle
1764138712324,0,-0.104000,-0.019000,1.042000,126,127,127,idle
1764138712345,0,-0.103000,-0.019000,1.043000,126,127,127,idle
1764138712366,0,-0.103000,-0.020000,1.044000,126,127,127,idle
1764138712387,0,-0.104000,-0.020000,1.044000,126,127,127,idle
1764138712407,0,-0.103000,-0.020000,1.043000,126,127,126,idle
1764138712428,0,-0.104000,-0.021000,1.044000,126,127,126,idle
1764138712448,0,-0.104000,-0.020000,1.043000,126,127,126,idle
1764138712469,0,-0.103000,-0.020000,1.042000,126,127,126,idle
1764138712489,0,-0.103000,-0.021000,1.042000,126,127,126,idle
1764138712510,0,-0.103000,-0.021000,1.042000,126,127,127,idle
1764138712530,0,-0.102000,-0.021000,1.042000,126,127,126,idle
1764138712551,0,-0.103000,-0.022000,1.043000,126,127,126,idle
1764138712571,0,-0.103000,-0.021000,1.043000,126,127,126,idle
1764138712592,0,-0.104000,-0.020000,1.043000,126,127,127,idle
1764138712613,0,-0.104000,-0.019000,1.043000,126,127,126,idle
1764138712633,0,-0.103000,-0.019000,1.043000,126,127,126,idle
1764138712654,0,-0.103000,-0.019000,1.043000,126,127,126,idle
1764138712675,0,-0.103000,-0.019000,1.043000,126,127,127,idle
1764138712695,0,-0.104000,-0.020000,1.043000,126,127,127,idle
1764138712715,0,-0.104000,-0.020000,1.043000,126,127,127,idle
1764138712735,0,-0.105000,-0.020000,1.042000,126,127,127,idle
1764138712756,0,-0.106000,-0.021000,1.042000,126,127,127,idle
1764138712776,0,-0.105000,-0.020000,1.042000,126,127,127,idle
1764138712797,0,-0.105000,-0.021000,1.042000,126,127,127,idle
1764138712818,0,-0.104000,-0.021000,1.043000,126,127,127,idle
1764138712838,0,-0.103000,-0.021000,1.044000,126,127,126,idle
1764138712859,0,-0.102000,-0.020000,1.044000,126,127,127,idle
1764138712879,0,-0.102000,-0.019000,1.044000,126,127,127,idle
1764138712899,0,-0.103000,-0.019000,1.044000,126,127,127,idle
1764138712920,0,-0.103000,-0.019000,1.044000,126,127,127,idle
1764138712941,0,-0.104000,-0.019000,1.043000,126,127,127,idle
1764138712961,0,-0.105000,-0.019000,1.043000,126,127,127,idle
1764138712981,0,-0.106000,-0.019000,1.043000,126,127,127,idle
1764138713001,0,-0.106000,-0.020000,1.043000,126,127,127,idle
1764138713022,0,-0.105000,-0.020000,1.043000,126,127,127,idle
1764138713042,0,-0.104000,-0.021000,1.043000,126,127,127,idle
1764138713063,0,-0.104000,-0.020000,1.043000,126,127,127,idle
1764138713083,0,-0.104000,-0.020000,1.042000,126,127,127,idle
1764138713104,0,-0.104000,-0.021000,1.042000,126,127,127,idle
1764138713126,0,-0.104000,-0.021000,1.043000,126,127,127,idle
1764138713145,0,-0.105000,-0.020000,1.042000,126,127,127,idle
1764138713166,0,-0.106000,-0.020000,1.042000,126,127,127,idle
1764138713186,0,-0.104000,-0.019000,1.043000,126,127,127,idle
1764138713206,0,-0.105000,-0.018000,1.043000,126,127,127,idle
1764138713227,0,-0.105000,-0.017000,1.043000,126,127,127,idle
1764138713247,0,-0.104000,-0.018000,1.042000,126,127,127,idle
1764138713267,0,-0.104000,-0.018000,1.042000,126,127,127,idle
1764138713287,0,-0.105000,-0.019000,1.043000,126,127,127,idle
1764138713307,0,-0.104000,-0.019000,1.043000,126,127,127,idle
1764138713328,0,-0.104000,-0.018000,1.045000,126,127,126,idle
1764138713349,0,-0.104000,-0.019000,1.044000,126,127,127,idle
1764138713370,0,-0.103000,-0.019000,1.043000,126,127,127,idle
1764138713391,0,-0.103000,-0.018000,1.043000,126,127,126,idle
1764138713411,0,-0.102000,-0.019000,1.043000,126,127,126,idle
1764138713432,0,-0.102000,-0.019000,1.043000,126,127,127,idle
1764138713453,0,-0.103000,-0.018000,1.043000,126,127,126,idle
1764138713473,0,-0.104000,-0.018000,1.042000,126,127,126,idle
1764138713493,0,-0.104000,-0.017000,1.042000,126,127,126,idle
1764138713513,0,-0.105000,-0.017000,1.042000,126,127,126,idle
1764138713534,0,-0.105000,-0.017000,1.042000,126,127,126,idle
1764138713554,0,-0.105000,-0.016000,1.041000,126,127,126,idle
1764138713575,0,-0.105000,-0.019000,1.042000,126,127,127,idle
1764138713595,0,-0.105000,-0.020000,1.041000,126,127,127,idle
1764138713616,0,-0.104000,-0.020000,1.041000,126,127,126,idle
1764138713638,0,-0.104000,-0.021000,1.042000,126,127,127,idle
1764138713659,0,-0.103000,-0.020000,1.042000,126,127,127,idle
1764138713679,0,-0.104000,-0.021000,1.043000,126,127,126,idle
1764138713700,0,-0.104000,-0.020000,1.043000,126,127,126,idle
1764138713720,0,-0.105000,-0.019000,1.044000,126,127,127,idle
1764138713740,0,-0.105000,-0.019000,1.043000,126,127,126,idle
1764138713760,0,-0.105000,-0.020000,1.043000,126,127,126,idle
1764138713780,0,-0.104000,-0.019000,1.043000,126,127,127,idle
1764138713800,0,-0.104000,-0.020000,1.042000,126,127,126,idle
1764138713820,0,-0.105000,-0.021000,1.042000,126,127,127,idle
1764138713841,0,-0.104000,-0.020000,1.043000,126,127,127,idle
1764138713862,0,-0.105000,-0.020000,1.043000,126,127,126,idle
1764138713882,0,-0.104000,-0.020000,1.044000,126,127,127,idle
1764138713903,0,-0.103000,-0.020000,1.043000,126,127,127,idle
1764138713923,0,-0.103000,-0.020000,1.043000,126,127,127,idle
1764138713943,0,-0.103000,-0.020000,1.043000,126,127,127,idle
1764138713964,0,-0.103000,-0.020000,1.044000,126,127,127,idle
1764138713984,0,-0.103000,-0.020000,1.043000,126,127,127,idle
1764138714005,0,-0.104000,-0.020000,1.043000,126,127,127,idle
1764138714025,0,-0.104000,-0.019000,1.043000,126,127,126,idle
1764138714046,0,-0.103000,-0.018000,1.042000,126,127,126,idle
1764138714066,0,-0.103000,-0.019000,1.041000,126,127,126,idle
1764138714087,0,-0.103000,-0.020000,1.041000,126,127,126,idle
1764138714107,0,-0.103000,-0.020000,1.041000,126,127,127,idle
1764138714128,0,-0.104000,-0.020000,1.042000,126,127,127,idle
1764138714148,0,-0.105000,-0.020000,1.041000,126,127,127,idle
1764138714168,0,-0.105000,-0.019000,1.042000,126,127,127,idle
1764138714189,0,-0.106000,-0.019000,1.042000,126,127,127,idle
1764138714209,0,-0.106000,-0.019000,1.044000,126,127,127,idle
1764138714233,0,-0.107000,-0.019000,1.043000,126,127,127,idle
1764138714254,0,-0.105000,-0.018000,1.044000,126,127,127,idle
1764138714275,0,-0.104000,-0.018000,1.044000,126,127,127,idle
1764138714296,0,-0.104000,-0.018000,1.044000,126,127,127,idle
1764138714317,0,-0.103000,-0.019000,1.044000,126,127,127,idle
1764138714337,0,-0.103000,-0.020000,1.043000,126,127,127,idle
1764138714357,0,-0.103000,-0.021000,1.043000,126,127,127,idle
1764138714377,0,-0.102000,-0.020000,1.042000,126,127,127,idle
1764138714398,0,-0.102000,-0.020000,1.043000,126,127,127,idle
1764138714419,0,-0.102000,-0.019000,1.043000,126,127,127,idle
1764138714440,0,-0.102000,-0.020000,1.043000,126,127,127,idle
1764138714460,0,-0.102000,-0.019000,1.043000,126,127,127,idle
1764138714481,0,-0.104000,-0.019000,1.044000,126,127,127,idle
1764138714501,0,-0.103000,-0.020000,1.043000,126,127,127,idle
1764138714521,0,-0.103000,-0.020000,1.043000,126,127,127,idle
1764138714542,0,-0.104000,-0.019000,1.043000,126,127,127,idle
1764138714562,0,-0.103000,-0.020000,1.043000,126,127,126,idle
1764138714583,0,-0.102000,-0.020000,1.042000,126,127,126,idle
1764138714603,0,-0.103000,-0.020000,1.043000,126,127,127,idle
1764138714627,0,-0.103000,-0.021000,1.042000,126,127,127,idle
1764138714648,0,-0.104000,-0.021000,1.043000,126,127,127,idle
1764138714668,0,-0.104000,-0.020000,1.042000,126,127,127,idle
1764138714688,0,-0.104000,-0.021000,1.043000,126,127,127,idle
1764138714708,0,-0.105000,-0.020000,1.042000,126,127,126,idle
1764138714728,0,-0.104000,-0.020000,1.043000,126,127,126,idle
1764138714748,0,-0.104000,-0.020000,1.044000,126,127,126,idle
1764138714769,0,-0.105000,-0.021000,1.045000,126,127,126,idle
1764138714789,0,-0.105000,-0.020000,1.044000,126,127,126,idle
1764138714810,0,-0.105000,-0.021000,1.043000,126,127,126,idle
1764138714830,0,-0.104000,-0.020000,1.042000,126,127,126,idle
1764138714851,0,-0.105000,-0.020000,1.041000,126,127,126,idle
1764138714871,0,-0.105000,-0.020000,1.041000,126,127,126,idle
1764138714892,0,-0.104000,-0.019000,1.040000,126,127,126,idle
1764138714915,0,-0.104000,-0.018000,1.041000,126,127,126,idle
1764138714935,0,-0.103000,-0.019000,1.042000,126,127,126,idle
1764138714955,0,-0.102000,-0.020000,1.042000,126,127,126,idle
1764138714976,0,-0.101000,-0.020000,1.043000,126,127,127,idle
1764138714996,0,-0.101000,-0.021000,1.042000,126,127,127,idle
1764138715017,0,-0.102000,-0.021000,1.043000,126,127,127,idle
1764138715037,0,-0.103000,-0.021000,1.042000,126,127,127,idle
1764138715058,0,-0.104000,-0.019000,1.043000,126,127,127,idle
1764138715078,0,-0.104000,-0.019000,1.043000,126,127,127,idle
1764138715098,0,-0.103000,-0.018000,1.043000,126,127,127,idle
1764138715118,0,-0.104000,-0.019000,1.042000,126,127,127,idle
1764138715139,0,-0.105000,-0.020000,1.042000,126,127,127,idle
1764138715160,0,-0.105000,-0.020000,1.042000,126,127,127,idle
1764138715180,0,-0.105000,-0.018000,1.042000,126,127,127,idle
1764138715200,0,-0.105000,-0.020000,1.042000,126,127,127,idle
1764138715220,0,-0.104000,-0.019000,1.042000,126,127,127,idle
1764138715241,0,-0.103000,-0.019000,1.042000,126,127,127,idle
1764138715261,0,-0.104000,-0.019000,1.042000,126,127,127,idle
1764138715282,0,-0.104000,-0.020000,1.041000,126,127,127,idle
1764138715302,0,-0.103000,-0.021000,1.041000,126,127,126,idle
1764138715323,0,-0.103000,-0.022000,1.042000,126,127,126,idle
1764138715344,0,-0.103000,-0.023000,1.042000,126,127,127,idle
1764138715364,0,-0.103000,-0.022000,1.042000,126,127,127,idle
1764138715385,0,-0.103000,-0.022000,1.042000,126,127,127,idle
1764138715406,0,-0.104000,-0.021000,1.042000,126,127,127,idle
1764138715427,0,-0.105000,-0.020000,1.041000,126,127,127,idle
1764138715447,0,-0.105000,-0.019000,1.042000,126,127,127,idle
1764138715468,0,-0.105000,-0.019000,1.042000,126,127,127,idle
1764138715490,0,-0.106000,-0.019000,1.042000,126,127,127,idle
1764138715510,0,-0.105000,-0.018000,1.042000,126,127,127,idle
1764138715531,0,-0.105000,-0.019000,1.043000,126,127,127,idle
1764138715551,0,-0.104000,-0.019000,1.042000,126,127,127,idle
1764138715571,0,-0.104000,-0.018000,1.043000,126,127,127,idle
1764138715591,0,-0.103000,-0.018000,1.042000,126,127,127,idle
1764138715612,0,-0.103000,-0.018000,1.042000,126,127,127,idle
1764138715633,0,-0.103000,-0.018000,1.041000,126,127,127,idle
1764138715654,0,-0.103000,-0.018000,1.042000,126,127,127,idle
1764138715681,0,-0.102000,-0.019000,1.042000,126,127,127,idle
1764138715701,0,-0.103000,-0.020000,1.043000,126,127,127,idle
1764138715721,0,-0.102000,-0.021000,1.043000,126,127,127,idle
1764138715741,0,-0.104000,-0.021000,1.041000,126,127,127,idle
1764138715761,0,-0.104000,-0.021000,1.042000,126,127,127,idle
1764138715781,0,-0.104000,-0.020000,1.041000,126,127,126,idle
1764138715802,0,-0.106000,-0.020000,1.040000,126,127,126,idle
1764138715823,0,-0.106000,-0.019000,1.042000,126,127,126,idle
1764138715845,0,-0.105000,-0.019000,1.042000,126,127,126,idle
1764138715865,0,-0.105000,-0.019000,1.042000,126,127,126,idle
1764138715886,0,-0.105000,-0.019000,1.042000,126,127,126,idle
1764138715906,0,-0.105000,-0.019000,1.043000,126,127,127,idle
1764138715927,0,-0.104000,-0.019000,1.042000,126,127,126,idle
1764138715947,0,-0.104000,-0.019000,1.043000,126,127,126,idle
1764138715967,0,-0.104000,-0.019000,1.043000,126,127,126,idle
1764138715987,0,-0.103000,-0.018000,1.042000,126,127,126,idle
1764138716008,0,-0.102000,-0.019000,1.042000,126,127,126,idle
1764138716028,0,-0.102000,-0.019000,1.042000,126,127,126,idle
1764138716050,0,-0.103000,-0.019000,1.042000,126,127,127,idle
1764138716071,0,-0.103000,-0.019000,1.043000,126,127,126,idle
1764138716092,0,-0.102000,-0.021000,1.042000,126,127,127,idle
1764138716113,0,-0.103000,-0.020000,1.043000,126,127,127,idle
1764138716134,0,-0.103000,-0.021000,1.043000,126,127,127,idle
1764138716154,0,-0.102000,-0.021000,1.043000,126,127,127,idle
1764138716175,0,-0.102000,-0.022000,1.044000,126,127,127,idle
1764138716196,0,-0.104000,-0.021000,1.043000,126,127,127,idle
1764138716216,0,-0.102000,-0.021000,1.042000,126,127,127,idle
1764138716236,0,-0.103000,-0.021000,1.043000,126,127,127,idle
1764138716256,0,-0.103000,-0.021000,1.043000,126,127,127,idle
1764138716276,0,-0.103000,-0.021000,1.043000,126,127,127,idle
1764138716298,0,-0.104000,-0.021000,1.043000,126,127,127,idle
1764138716319,0,-0.104000,-0.020000,1.043000,126,127,127,idle
1764138716340,0,-0.104000,-0.020000,1.043000,126,127,127,idle
1764138716361,0,-0.104000,-0.020000,1.043000,126,127,127,idle
1764138716381,0,-0.104000,-0.021000,1.044000,126,127,127,idle
1764138716401,0,-0.104000,-0.021000,1.045000,126,127,127,idle
1764138716421,0,-0.105000,-0.021000,1.045000,126,127,127,idle
1764138716441,0,-0.104000,-0.022000,1.045000,126,127,127,idle
1764138716461,0,-0.105000,-0.021000,1.044000,126,127,127,idle
1764138716481,0,-0.104000,-0.021000,1.045000,126,127,127,idle
1764138716501,0,-0.105000,-0.020000,1.043000,126,127,127,idle
1764138716521,0,-0.105000,-0.019000,1.043000,126,127,127,idle
1764138716541,0,-0.105000,-0.019000,1.043000,126,127,127,idle
1764138716562,0,-0.106000,-0.018000,1.040000,126,127,127,idle
1764138716583,0,-0.105000,-0.018000,1.040000,126,127,127,idle
1764138716604,0,-0.105000,-0.017000,1.041000,126,127,126,idle
1764138716625,0,-0.105000,-0.019000,1.040000,126,127,126,idle
1764138716645,0,-0.104000,-0.019000,1.042000,126,127,127,idle
1764138716665,0,-0.104000,-0.019000,1.043000,126,127,127,idle
1764138716686,0,-0.104000,-0.018000,1.043000,126,127,127,idle
1764138716706,0,-0.104000,-0.018000,1.043000,126,127,127,idle
1764138716727,0,-0.103000,-0.018000,1.043000,126,127,127,idle
1764138716747,0,-0.103000,-0.018000,1.042000,126,127,127,idle
1764138716767,0,-0.102000,-0.018000,1.041000,126,127,127,idle
1764138716787,0,-0.102000,-0.020000,1.042000,126,127,127,idle
1764138716808,0,-0.103000,-0.020000,1.042000,126,127,127,idle
1764138716828,0,-0.104000,-0.021000,1.043000,126,127,127,idle
1764138716849,0,-0.104000,-0.021000,1.044000,126,127,127,idle
1764138716871,0,-0.105000,-0.020000,1.043000,126,127,127,idle
1764138716892,0,-0.105000,-0.019000,1.044000,126,127,126,idle
1764138716914,0,-0.105000,-0.019000,1.044000,126,127,126,idle
1764138716935,0,-0.105000,-0.019000,1.044000,126,127,127,idle
1764138716955,0,-0.105000,-0.019000,1.043000,126,127,126,idle
1764138716975,0,-0.105000,-0.019000,1.043000,126,127,127,idle
1764138716996,0,-0.105000,-0.020000,1.042000,126,127,127,idle
1764138717016,0,-0.104000,-0.020000,1.041000,126,127,127,idle
1764138717038,0,-0.104000,-0.020000,1.040000,126,127,127,idle
1764138717059,0,-0.104000,-0.020000,1.040000,126,127,126,idle
1764138717081,0,-0.103000,-0.019000,1.041000,126,127,126,idle
1764138717102,0,-0.104000,-0.019000,1.042000,126,127,126,idle
1764138717123,0,-0.103000,-0.018000,1.042000,126,127,126,idle
1764138717143,0,-0.104000,-0.019000,1.043000,126,127,127,idle
1764138717163,0,-0.103000,-0.019000,1.044000,126,127,126,idle
1764138717184,0,-0.104000,-0.019000,1.044000,126,127,127,idle
1764138717205,0,-0.104000,-0.019000,1.043000,126,127,126,idle
1764138717225,0,-0.105000,-0.020000,1.044000,126,127,127,idle
1764138717246,0,-0.104000,-0.021000,1.043000,126,127,126,idle
1764138717266,0,-0.104000,-0.021000,1.043000,126,127,126,idle
1764138717288,0,-0.103000,-0.021000,1.043000,126,127,126,idle
1764138717309,0,-0.103000,-0.020000,1.043000,126,127,126,idle
1764138717330,0,-0.103000,-0.019000,1.042000,126,127,126,idle
1764138717350,0,-0.103000,-0.019000,1.042000,126,127,126,idle
1764138717371,0,-0.103000,-0.019000,1.042000,126,127,127,idle
1764138717391,0,-0.103000,-0.019000,1.042000,126,127,127,idle
1764138717412,0,-0.104000,-0.020000,1.042000,126,127,127,idle
1764138717432,0,-0.104000,-0.021000,1.042000,126,127,127,idle
1764138717453,0,-0.105000,-0.022000,1.043000,126,127,127,idle
1764138717473,0,-0.105000,-0.021000,1.044000,126,127,127,idle
1764138717493,0,-0.105000,-0.021000,1.043000,126,127,126,idle
1764138717513,0,-0.105000,-0.021000,1.044000,126,127,127,idle
1764138717534,0,-0.104000,-0.020000,1.044000,126,127,127,idle
1764138717555,0,-0.103000,-0.020000,1.043000,126,127,127,idle
1764138717577,0,-0.103000,-0.020000,1.044000,126,127,127,idle
1764138717598,0,-0.102000,-0.021000,1.043000,126,127,127,idle
1764138717618,0,-0.102000,-0.019000,1.043000,126,127,127,idle
1764138717638,0,-0.104000,-0.019000,1.043000,126,127,127,idle
1764138717658,0,-0.103000,-0.019000,1.044000,126,127,127,idle
1764138717678,0,-0.103000,-0.019000,1.043000,126,127,126,idle
1764138717698,0,-0.104000,-0.017000,1.042000,126,127,126,idle
1764138717719,0,-0.103000,-0.018000,1.042000,126,127,127,idle
1764138717740,0,-0.104000,-0.019000,1.041000,126,127,127,idle
1764138717760,0,-0.104000,-0.019000,1.041000,126,127,127,idle
1764138717781,0,-0.104000,-0.019000,1.042000,126,127,127,idle
1764138717803,0,-0.104000,-0.020000,1.041000,126,127,127,idle
1764138717823,0,-0.104000,-0.020000,1.042000,126,127,127,idle
1764138717844,0,-0.103000,-0.020000,1.043000,126,127,127,idle
1764138717864,0,-0.103000,-0.020000,1.042000,126,127,127,idle
1764138717885,0,-0.103000,-0.021000,1.043000,126,127,127,idle
1764138717905,0,-0.103000,-0.021000,1.044000,126,127,127,idle
1764138717925,0,-0.103000,-0.020000,1.043000,126,127,127,idle
1764138726689,0,-0.100000,-0.017000,1.042000,126,127,126,idle
1764138726709,0,-0.100000,-0.017000,1.041000,126,127,126,idle
1764138726729,0,-0.100000,-0.018000,1.042000,126,127,127,idle
1764138726749,0,-0.099000,-0.018000,1.041000,126,127,127,idle
1764138726769,0,-0.099000,-0.017000,1.041000,126,127,127,idle
1764138726789,0,-0.100000,-0.017000,1.044000,126,127,127,idle
1764138726811,0,-0.100000,-0.014000,1.042000,126,127,127,idle
1764138726831,0,-0.100000,-0.015000,1.042000,126,127,126,idle
1764138726853,0,-0.100000,-0.016000,1.041000,126,127,127,idle
1764138726875,0,-0.102000,-0.016000,1.041000,126,127,126,idle
1764138726896,0,-0.102000,-0.018000,1.041000,126,127,126,idle
1764138726917,0,-0.101000,-0.019000,1.042000,127,127,126,idle
1764138726937,0,-0.102000,-0.018000,1.042000,127,127,126,idle
1764138726957,0,-0.102000,-0.016000,1.043000,127,127,126,idle
1764138726978,0,-0.101000,-0.014000,1.042000,126,127,127,idle
1764138726998,0,-0.100000,-0.014000,1.042000,126,127,127,idle
1764138727019,0,-0.099000,-0.015000,1.042000,126,127,127,idle
1764138727039,0,-0.099000,-0.017000,1.042000,126,127,127,idle
1764138727060,0,-0.100000,-0.020000,1.042000,126,127,127,idle
1764138727081,0,-0.099000,-0.020000,1.041000,126,127,127,idle
1764138727102,0,-0.100000,-0.019000,1.043000,126,127,127,idle
1764138727123,0,-0.100000,-0.018000,1.043000,126,127,127,idle
1764138727144,0,-0.100000,-0.016000,1.043000,126,127,127,idle
1764138727164,0,-0.101000,-0.015000,1.042000,126,127,127,idle
1764138727184,0,-0.101000,-0.014000,1.043000,126,127,126,idle
1764138727204,0,-0.101000,-0.015000,1.043000,126,127,127,idle
1764138727224,0,-0.101000,-0.016000,1.041000,126,127,127,idle
1764138727244,0,-0.102000,-0.017000,1.041000,126,127,127,idle
1764138727264,0,-0.101000,-0.018000,1.042000,126,127,127,idle
1764138727286,0,-0.100000,-0.018000,1.042000,126,127,127,idle
1764138727307,0,-0.099000,-0.017000,1.044000,126,127,127,idle
1764138727328,0,-0.098000,-0.017000,1.044000,126,127,127,idle
1764138727349,0,-0.098000,-0.016000,1.045000,126,127,127,idle
1764138727370,0,-0.097000,-0.015000,1.045000,126,127,127,idle
1764138727392,0,-0.098000,-0.016000,1.045000,126,127,127,idle
1764138727412,0,-0.098000,-0.016000,1.044000,126,127,127,idle
1764138727433,0,-0.099000,-0.017000,1.044000,126,127,127,idle
1764138727453,0,-0.098000,-0.017000,1.044000,126,127,127,idle
1764138727474,0,-0.100000,-0.017000,1.044000,126,127,127,idle
1764138727494,0,-0.101000,-0.016000,1.043000,126,127,126,idle
1764138727515,0,-0.101000,-0.015000,1.042000,126,127,126,idle
1764138727536,0,-0.102000,-0.015000,1.043000,126,127,126,idle
1764138727557,0,-0.100000,-0.016000,1.043000,126,127,127,idle
1764138727578,0,-0.100000,-0.017000,1.043000,126,127,127,idle
1764138727599,0,-0.100000,-0.017000,1.043000,126,127,127,idle
1764138727620,0,-0.099000,-0.018000,1.043000,126,127,127,idle
1764138727640,0,-0.098000,-0.017000,1.044000,126,127,127,idle
1764138727661,0,-0.100000,-0.017000,1.043000,126,127,127,idle
1764138727681,0,-0.098000,-0.016000,1.043000,126,127,127,idle
1764138727702,0,-0.098000,-0.016000,1.044000,126,127,127,idle
1764138727722,0,-0.099000,-0.016000,1.043000,126,127,127,idle
1764138727743,0,-0.098000,-0.016000,1.044000,126,127,126,idle
1764138727763,0,-0.099000,-0.017000,1.044000,126,127,126,idle
1764138727785,0,-0.098000,-0.018000,1.043000,126,127,127,idle
1764138727806,0,-0.099000,-0.018000,1.043000,126,127,127,idle
1764138727826,0,-0.098000,-0.019000,1.043000,126,127,127,idle
1764138727847,0,-0.098000,-0.018000,1.043000,126,127,127,idle
1764138727867,0,-0.099000,-0.017000,1.043000,126,127,127,idle
1764138727887,0,-0.100000,-0.018000,1.044000,126,127,127,idle
1764138727908,0,-0.101000,-0.017000,1.043000,126,127,127,idle
1764138727928,0,-0.112000,-0.016000,1.041000,126,127,127,idle
1764138727948,0,-0.107000,-0.015000,1.041000,126,127,127,idle
1764138727969,0,-0.097000,-0.014000,1.041000,126,127,127,idle
1764138727989,0,-0.095000,-0.015000,1.040000,126,127,127,idle
1764138728010,0,-0.088000,-0.016000,1.041000,126,127,127,idle
1764138728031,0,-0.090000,-0.018000,1.042000,126,127,127,idle
1764138728052,0,-0.099000,-0.019000,1.043000,126,127,127,idle
1764138728072,0,-0.098000,-0.021000,1.044000,126,127,127,idle
1764138728092,0,-0.098000,-0.021000,1.043000,126,127,127,idle
1764138728113,0,-0.095000,-0.020000,1.044000,126,127,127,idle
1764138728133,0,-0.099000,-0.018000,1.044000,126,127,127,idle
1764138728153,0,-0.100000,-0.017000,1.042000,126,127,127,idle
1764138728174,0,-0.099000,-0.016000,1.042000,126,127,127,idle
1764138728194,0,-0.100000,-0.015000,1.043000,126,127,127,idle
1764138728215,0,-0.100000,-0.017000,1.044000,126,127,127,idle
1764138728235,0,-0.099000,-0.019000,1.043000,126,127,127,idle
1764138728256,0,-0.100000,-0.019000,1.042000,126,127,127,idle
1764138728276,0,-0.099000,-0.018000,1.042000,126,127,127,idle
1764138728297,0,-0.099000,-0.017000,1.043000,126,127,127,idle
1764138728317,0,-0.098000,-0.015000,1.042000,126,127,127,idle
1764138728338,0,-0.099000,-0.015000,1.042000,126,127,127,idle
1764138728359,0,-0.100000,-0.015000,1.043000,126,127,127,idle
1764138728379,0,-0.100000,-0.016000,1.043000,126,127,127,idle
1764138728399,0,-0.100000,-0.017000,1.042000,126,127,127,idle
1764138728420,0,-0.101000,-0.018000,1.043000,126,127,126,idle
1764138728440,0,-0.101000,-0.018000,1.043000,126,127,127,idle
1764138728461,0,-0.100000,-0.017000,1.044000,126,127,127,idle
1764138728481,0,-0.101000,-0.017000,1.043000,126,127,127,idle
1764138728502,0,-0.101000,-0.015000,1.044000,126,127,127,idle
1764138728522,0,-0.101000,-0.013000,1.044000,126,127,127,idle
1764138728542,0,-0.101000,-0.014000,1.044000,126,127,127,idle
1764138728563,0,-0.100000,-0.015000,1.044000,126,127,127,idle
1764138728584,0,-0.100000,-0.016000,1.044000,126,127,127,idle
1764138728604,0,-0.100000,-0.017000,1.044000,126,127,127,idle
1764138728626,0,-0.099000,-0.018000,1.044000,126,127,127,idle
1764138728647,0,-0.099000,-0.017000,1.043000,126,127,127,idle
1764138728667,0,-0.100000,-0.016000,1.043000,126,127,127,idle
1764138728688,0,-0.100000,-0.016000,1.044000,126,127,127,idle
1764138728708,0,-0.100000,-0.016000,1.044000,126,127,127,idle
1764138728729,0,-0.100000,-0.017000,1.043000,126,127,127,idle
1764138728749,0,-0.100000,-0.018000,1.044000,126,127,126,idle
1764138728770,0,-0.100000,-0.017000,1.043000,126,127,126,idle
1764138728791,0,-0.101000,-0.017000,1.042000,126,127,126,idle
1764138728812,0,-0.100000,-0.017000,1.043000,126,127,126,idle
1764138728833,0,-0.099000,-0.017000,1.043000,126,127,126,idle
1764138728854,0,-0.099000,-0.017000,1.042000,126,127,126,idle
1764138728875,0,-0.099000,-0.016000,1.042000,126,127,127,idle
1764138728895,0,-0.099000,-0.017000,1.043000,126,127,127,idle
1764138728915,0,-0.100000,-0.017000,1.042000,126,127,127,idle
1764138728936,0,-0.101000,-0.016000,1.042000,126,127,127,idle
1764138728957,0,-0.101000,-0.016000,1.043000,126,127,127,idle
1764138728978,0,-0.100000,-0.018000,1.042000,126,127,127,idle
1764138728998,0,-0.100000,-0.018000,1.043000,126,127,127,idle
1764138729019,0,-0.099000,-0.019000,1.044000,126,127,126,idle
1764138729040,0,-0.100000,-0.019000,1.044000,126,127,127,idle
1764138729061,0,-0.099000,-0.018000,1.044000,126,127,127,idle
1764138729081,0,-0.100000,-0.018000,1.044000,126,127,127,idle
1764138729102,0,-0.101000,-0.018000,1.044000,126,127,126,idle
1764138729122,0,-0.101000,-0.017000,1.043000,126,127,127,idle
1764138729142,0,-0.100000,-0.017000,1.043000,126,127,127,idle
1764138729162,0,-0.100000,-0.017000,1.042000,126,127,126,idle
1764138729182,0,-0.100000,-0.016000,1.043000,126,127,126,idle
1764138729202,0,-0.100000,-0.016000,1.042000,126,127,127,idle
1764138729222,0,-0.100000,-0.016000,1.042000,126,127,126,idle
1764138729243,0,-0.101000,-0.017000,1.043000,126,127,127,idle
1764138729265,0,-0.100000,-0.018000,1.042000,126,127,127,idle
1764138729286,0,-0.100000,-0.018000,1.043000,126,127,127,idle
1764138729307,0,-0.101000,-0.017000,1.043000,126,127,127,idle
1764138729328,0,-0.100000,-0.017000,1.042000,126,127,126,idle
1764138729349,0,-0.100000,-0.018000,1.042000,126,127,126,idle
1764138729370,0,-0.100000,-0.018000,1.042000,126,127,126,idle
1764138729390,0,-0.100000,-0.017000,1.043000,126,127,126,idle
1764138729411,0,-0.099000,-0.018000,1.043000,126,127,126,idle
1764138729432,0,-0.100000,-0.018000,1.044000,126,127,126,idle
1764138729453,0,-0.101000,-0.018000,1.044000,126,127,127,idle
1764138729473,0,-0.100000,-0.018000,1.044000,126,127,127,idle
1764138729495,0,-0.101000,-0.017000,1.043000,126,127,127,idle
1764138729517,0,-0.100000,-0.018000,1.043000,126,127,126,idle
1764138729538,0,-0.101000,-0.018000,1.043000,126,127,127,idle
1764138729559,0,-0.100000,-0.017000,1.042000,126,127,127,idle
1764138729579,0,-0.100000,-0.017000,1.042000,126,127,127,idle
1764138729599,0,-0.099000,-0.017000,1.042000,126,127,126,idle
1764138729620,0,-0.099000,-0.017000,1.041000,126,127,127,idle
1764138729640,0,-0.099000,-0.016000,1.041000,126,127,127,idle
1764138729661,0,-0.099000,-0.017000,1.042000,126,127,126,idle
1764138729681,0,-0.100000,-0.016000,1.043000,126,127,127,idle
1764138729703,0,-0.101000,-0.016000,1.043000,126,127,127,idle
1764138729723,0,-0.100000,-0.017000,1.042000,126,127,127,idle
1764138729745,0,-0.099000,-0.017000,1.042000,126,127,127,idle
1764138729766,0,-0.099000,-0.017000,1.042000,126,127,127,idle
1764138729787,0,-0.098000,-0.019000,1.041000,126,127,127,idle
1764138729807,0,-0.098000,-0.017000,1.041000,126,127,127,idle
1764138729829,0,-0.098000,-0.018000,1.043000,126,127,126,idle
1764138729849,0,-0.099000,-0.018000,1.043000,126,127,126,idle
1764138729870,0,-0.100000,-0.018000,1.043000,126,127,126,idle
1764138729890,0,-0.099000,-0.018000,1.042000,126,127,126,idle
1764138729911,0,-0.100000,-0.017000,1.042000,126,127,126,idle
1764138729932,0,-0.100000,-0.017000,1.043000,126,127,126,idle
1764138729953,0,-0.100000,-0.016000,1.043000,126,127,126,idle
1764138729974,0,-0.099000,-0.017000,1.044000,126,127,127,idle
1764138729995,0,-0.100000,-0.017000,1.044000,126,127,126,idle
1764138730015,0,-0.100000,-0.016000,1.043000,126,127,126,idle
1764138730036,0,-0.100000,-0.016000,1.043000,126,127,127,idle
1764138730056,0,-0.099000,-0.016000,1.042000,126,127,127,idle
1764138730076,0,-0.100000,-0.016000,1.042000,126,127,127,idle
1764138730096,0,-0.100000,-0.016000,1.043000,126,127,127,idle
1764138730116,0,-0.100000,-0.016000,1.043000,126,127,127,idle
1764138730136,0,-0.099000,-0.017000,1.043000,126,127,127,idle
1764138730156,0,-0.099000,-0.017000,1.043000,126,127,127,idle
1764138730177,0,-0.099000,-0.017000,1.042000,126,127,127,idle
1764138730197,0,-0.100000,-0.018000,1.043000,126,127,127,idle
1764138730218,0,-0.100000,-0.018000,1.042000,126,127,127,idle
1764138730239,0,-0.100000,-0.018000,1.043000,126,127,127,idle
1764138730259,0,-0.100000,-0.018000,1.043000,126,127,126,idle
1764138730279,0,-0.100000,-0.018000,1.043000,126,127,126,idle
1764138730300,0,-0.099000,-0.017000,1.042000,126,127,126,idle
1764138730320,0,-0.100000,-0.017000,1.043000,126,127,126,idle
1764138730341,0,-0.100000,-0.017000,1.043000,126,127,126,idle
1764138730361,0,-0.099000,-0.017000,1.044000,126,127,127,idle
1764138730384,0,-0.099000,-0.017000,1.044000,126,127,127,idle
1764138730404,0,-0.099000,-0.016000,1.044000,126,127,127,idle
1764138730429,0,-0.099000,-0.017000,1.044000,126,127,127,idle
1764138730449,0,-0.099000,-0.017000,1.043000,126,127,127,idle
1764138730470,0,-0.099000,-0.017000,1.043000,126,127,127,idle
1764138730491,0,-0.099000,-0.017000,1.043000,126,127,127,idle
1764138730513,0,-0.100000,-0.018000,1.043000,126,127,127,idle
1764138730533,0,-0.100000,-0.017000,1.043000,126,127,127,idle
1764138730554,0,-0.100000,-0.017000,1.043000,126,127,127,idle
1764138730574,0,-0.100000,-0.017000,1.042000,126,127,127,idle
1764138730595,0,-0.100000,-0.017000,1.043000,126,127,127,idle
1764138730615,0,-0.101000,-0.017000,1.043000,126,127,127,idle
1764138730636,0,-0.100000,-0.016000,1.042000,126,127,127,idle
1764138730658,0,-0.101000,-0.016000,1.042000,126,127,126,idle
1764138730678,0,-0.100000,-0.016000,1.042000,126,127,126,idle
1764138730698,0,-0.100000,-0.016000,1.042000,126,127,127,idle
1764138730718,0,-0.100000,-0.016000,1.043000,126,127,127,idle
1764138730739,0,-0.100000,-0.017000,1.043000,126,127,127,idle
1764138730759,0,-0.099000,-0.017000,1.043000,126,127,127,idle
1764138730779,0,-0.099000,-0.016000,1.043000,126,127,127,idle
1764138730799,0,-0.098000,-0.016000,1.044000,126,127,126,idle
1764138730820,0,-0.099000,-0.016000,1.043000,126,127,126,idle
1764138730841,0,-0.098000,-0.016000,1.043000,126,127,126,idle
1764138730862,0,-0.098000,-0.017000,1.042000,126,127,126,idle
1764138730882,0,-0.099000,-0.018000,1.042000,126,127,126,idle
1764138730905,0,-0.099000,-0.018000,1.042000,126,127,126,idle
1764138730927,0,-0.098000,-0.018000,1.042000,126,127,126,idle
1764138730947,0,-0.099000,-0.018000,1.043000,126,127,126,idle
1764138730967,0,-0.100000,-0.017000,1.044000,126,127,126,idle
1764138730989,0,-0.099000,-0.016000,1.044000,126,127,126,idle
1764138731010,0,-0.099000,-0.016000,1.045000,126,127,126,idle
1764138731030,0,-0.099000,-0.016000,1.044000,126,127,127,idle
1764138731050,0,-0.099000,-0.016000,1.044000,126,127,127,idle
1764138731071,0,-0.099000,-0.017000,1.045000,126,127,127,idle
1764138731091,0,-0.099000,-0.017000,1.044000,126,127,127,idle
1764138731113,0,-0.100000,-0.017000,1.044000,126,127,127,idle
1764138731133,0,-0.100000,-0.017000,1.044000,126,127,127,idle
1764138731154,0,-0.100000,-0.017000,1.044000,126,127,127,idle
1764138731174,0,-0.100000,-0.017000,1.044000,126,127,127,idle
1764138731194,0,-0.099000,-0.017000,1.044000,126,127,127,idle
1764138731214,0,-0.099000,-0.017000,1.045000,126,127,127,idle
1764138731234,0,-0.099000,-0.016000,1.045000,126,127,127,idle
1764138731254,0,-0.099000,-0.017000,1.044000,126,127,127,idle
1764138731275,0,-0.100000,-0.018000,1.043000,126,127,127,idle
1764138731295,0,-0.100000,-0.017000,1.042000,126,127,127,idle
1764138731316,0,-0.100000,-0.018000,1.042000,126,127,127,idle
1764138731337,0,-0.099000,-0.018000,1.042000,126,127,127,idle
1764138731359,0,-0.099000,-0.018000,1.042000,126,127,127,idle
1764138731379,0,-0.099000,-0.017000,1.043000,126,127,127,idle
1764138731400,0,-0.099000,-0.016000,1.043000,126,127,127,idle
1764138731420,0,-0.099000,-0.016000,1.043000,126,127,127,idle
1764138731441,0,-0.099000,-0.016000,1.044000,126,127,127,idle
1764138731461,0,-0.100000,-0.016000,1.042000,126,127,127,idle
1764138731481,0,-0.114000,-0.015000,1.041000,126,127,127,idle
1764138731502,0,-0.111000,-0.017000,1.042000,126,127,127,idle
1764138731522,0,-0.102000,-0.018000,1.043000,126,127,127,idle
1764138731543,0,-0.102000,-0.019000,1.044000,126,127,127,idle
1764138731563,0,-0.091000,-0.019000,1.044000,126,127,127,idle
1764138731584,0,-0.095000,-0.018000,1.043000,126,127,127,idle
1764138731605,0,-0.099000,-0.017000,1.043000,126,127,127,idle
1764138731627,0,-0.098000,-0.016000,1.043000,126,127,127,idle
1764138731648,0,-0.099000,-0.016000,1.042000,126,127,127,idle
1764138731669,0,-0.096000,-0.016000,1.045000,126,127,127,idle
1764138731689,0,-0.094000,-0.016000,1.044000,126,127,127,idle
1764138731709,0,-0.100000,-0.015000,1.044000,126,127,127,idle
1764138731730,0,-0.101000,-0.016000,1.044000,126,127,127,idle
1764138731750,0,-0.100000,-0.016000,1.045000,126,127,126,idle
1764138731770,0,-0.099000,-0.016000,1.045000,126,127,126,idle
1764138731791,0,-0.100000,-0.016000,1.045000,126,127,127,idle
1764138731812,0,-0.100000,-0.018000,1.044000,126,127,127,idle
1764138731833,0,-0.100000,-0.018000,1.044000,126,127,127,idle
1764138731854,0,-0.101000,-0.017000,1.043000,126,127,127,idle
1764138731875,0,-0.100000,-0.017000,1.043000,126,127,127,idle
1764138731896,0,-0.100000,-0.015000,1.043000,126,127,127,idle
1764138731916,0,-0.099000,-0.015000,1.043000,126,127,127,idle
1764138731936,0,-0.098000,-0.015000,1.043000,126,127,127,idle
1764138731957,0,-0.099000,-0.016000,1.043000,126,127,127,idle
1764138731977,0,-0.100000,-0.017000,1.043000,126,127,127,idle
1764138731997,0,-0.100000,-0.018000,1.043000,126,127,127,idle
1764138732017,0,-0.100000,-0.018000,1.044000,126,127,127,idle
1764138732037,0,-0.101000,-0.018000,1.044000,126,127,127,idle
1764138732057,0,-0.100000,-0.018000,1.045000,126,127,126,idle
1764138732077,0,-0.100000,-0.018000,1.044000,126,127,127,idle
1764138732099,0,-0.100000,-0.018000,1.043000,126,127,127,idle
1764138732120,0,-0.099000,-0.018000,1.043000,126,127,127,idle
1764138732141,0,-0.099000,-0.018000,1.042000,126,127,127,idle
1764138732162,0,-0.099000,-0.018000,1.042000,126,127,127,idle
1764138732182,0,-0.098000,-0.018000,1.042000,126,127,127,idle
1764138732202,0,-0.097000,-0.018000,1.043000,126,127,127,idle
1764138732222,0,-0.098000,-0.018000,1.043000,126,127,127,idle
1764138732242,0,-0.099000,-0.018000,1.043000,126,127,127,idle
1764138732262,0,-0.100000,-0.019000,1.043000,126,127,127,idle
1764138732283,0,-0.100000,-0.019000,1.043000,126,127,127,idle
1764138732303,0,-0.100000,-0.019000,1.043000,126,127,126,idle
1764138732323,0,-0.100000,-0.019000,1.043000,126,127,126,idle
1764138732344,0,-0.099000,-0.019000,1.044000,126,127,127,idle
1764138732364,0,-0.099000,-0.020000,1.045000,126,127,126,idle
1764138732385,0,-0.099000,-0.019000,1.045000,126,127,127,idle
1764138732406,0,-0.098000,-0.019000,1.044000,126,127,126,idle
1764138732426,0,-0.099000,-0.019000,1.045000,126,127,126,idle
1764138732447,0,-0.099000,-0.018000,1.045000,126,127,126,idle
1764138732467,0,-0.099000,-0.018000,1.044000,126,127,127,idle
1764138732487,0,-0.101000,-0.018000,1.043000,126,127,126,idle
1764138732508,0,-0.101000,-0.018000,1.043000,126,127,127,idle
1764138732528,0,-0.101000,-0.019000,1.043000,126,127,127,idle
1764138732549,0,-0.102000,-0.018000,1.042000,126,127,126,idle
1764138732569,0,-0.102000,-0.017000,1.043000,126,127,126,idle
1764138732589,0,-0.101000,-0.018000,1.043000,126,127,126,idle
1764138732610,0,-0.101000,-0.014000,1.044000,126,127,126,idle
1764138732630,0,-0.100000,-0.014000,1.044000,126,127,126,idle
1764138732650,0,-0.100000,-0.014000,1.043000,126,127,126,idle
1764138732672,0,-0.100000,-0.015000,1.044000,126,127,126,idle
1764138768232,0,-0.100000,-0.020000,1.045000,126,127,126,tap
1764138768252,0,-0.100000,-0.021000,1.044000,126,127,126,tap
1764138768272,0,-0.101000,-0.022000,1.043000,126,127,126,tap
1764138768292,0,-0.103000,-0.021000,1.046000,126,127,127,tap
1764138768312,0,-0.101000,-0.019000,1.045000,126,127,127,tap
1764138768331,0,-0.101000,-0.017000,1.044000,126,127,127,tap
1764138768352,0,-0.102000,-0.015000,1.045000,126,127,127,tap
1764138768372,0,-0.102000,-0.014000,1.045000,126,127,127,tap
1764138768391,0,-0.103000,-0.016000,1.043000,126,127,127,tap
1764138768411,0,-0.103000,-0.018000,1.044000,126,127,126,tap
1764138768432,0,-0.103000,-0.018000,1.043000,126,127,126,tap
1764138768452,0,-0.103000,-0.020000,1.043000,126,127,126,tap
1764138768472,0,-0.102000,-0.020000,1.043000,126,127,127,tap
1764138768492,0,-0.104000,-0.018000,1.044000,126,127,127,tap
1764138768513,0,-0.104000,-0.018000,1.044000,126,127,127,tap
1764138768534,0,-0.103000,-0.018000,1.043000,126,127,127,tap
1764138768555,0,-0.104000,-0.019000,1.042000,126,127,127,tap
1764138768575,0,-0.104000,-0.019000,1.040000,127,127,127,tap
1764138768596,14,-0.104000,-0.018000,1.043000,127,127,127,tap
1764138768617,0,-0.102000,-0.017000,1.043000,127,127,127,tap
1764138768637,0,-0.098000,-0.016000,1.043000,127,127,127,tap
1764138768658,0,-0.103000,-0.015000,1.047000,127,127,127,tap
1764138768678,0,-0.099000,-0.013000,1.048000,127,127,127,tap
1764138768698,40,-0.081000,-0.016000,1.049000,127,127,127,tap
1764138768719,5,-0.016000,-0.007000,1.018000,127,127,127,tap
1764138768739,0,-0.012000,-0.018000,1.037000,127,127,127,tap
1764138768760,0,-0.025000,-0.021000,1.036000,127,127,127,tap
1764138768780,0,-0.040000,-0.018000,1.031000,127,127,127,tap
1764138768802,0,-0.096000,-0.027000,1.061000,127,127,127,tap
1764138768823,0,-0.084000,-0.008000,1.021000,126,127,126,tap
1764138768844,0,-0.100000,-0.009000,1.028000,126,127,127,tap
1764138768864,0,-0.088000,-0.006000,1.029000,126,127,127,tap
1764138768884,0,-0.096000,-0.009000,1.033000,126,127,127,tap
1764138768905,6,-0.101000,-0.016000,1.034000,126,127,127,tap
1764138768925,0,-0.104000,-0.023000,1.049000,126,127,127,tap
1764138768946,0,-0.102000,-0.021000,1.047000,126,127,126,tap
1764138768966,0,-0.088000,-0.017000,1.039000,126,127,126,tap
1764138768987,0,-0.102000,-0.013000,1.037000,126,127,127,tap
1764138769007,0,-0.104000,-0.020000,1.042000,126,127,126,tap
1764138769027,6,-0.108000,-0.024000,1.054000,126,127,126,tap
1764138769047,0,-0.109000,-0.025000,1.055000,126,127,126,tap
1764138769068,0,-0.123000,-0.029000,1.060000,126,127,126,tap
1764138769089,0,-0.115000,-0.028000,1.063000,126,127,126,tap
1764138769108,0,-0.113000,-0.022000,1.056000,126,127,126,tap
1764138769129,0,-0.100000,-0.015000,1.038000,126,127,126,tap
1764138769149,0,-0.101000,-0.021000,1.061000,126,127,127,tap
1764138769170,0,-0.096000,-0.019000,1.061000,126,127,127,tap
1764138769190,0,-0.091000,-0.020000,1.059000,127,127,127,tap
1764138769210,0,-0.083000,-0.020000,1.052000,127,127,127,tap
1764138769231,0,-0.084000,-0.029000,1.068000,127,127,127,tap
1764138769251,0,-0.084000,-0.018000,1.045000,127,127,127,tap
1764138769272,0,-0.084000,-0.016000,1.046000,127,127,127,tap
1764138769292,0,-0.083000,-0.013000,1.050000,127,127,127,tap
1764138769311,0,-0.087000,-0.007000,1.039000,127,127,127,tap
1764138769332,0,-0.073000,-0.010000,1.022000,127,127,127,tap
1764138769353,0,-0.074000,-0.011000,1.024000,127,127,127,tap
1764138769373,0,-0.089000,-0.014000,1.016000,127,127,127,tap
1764138769394,0,-0.112000,-0.019000,1.024000,127,127,127,tap
1764138769414,0,-0.112000,-0.025000,1.035000,127,127,127,tap
1764138769434,0,-0.122000,-0.025000,1.044000,127,127,127,tap
1764138769455,0,-0.123000,-0.019000,1.038000,127,127,127,tap
1764138769475,0,-0.118000,-0.019000,1.058000,127,127,127,tap
1764138769496,0,-0.097000,-0.012000,1.049000,127,127,127,tap
1764138769516,0,-0.086000,-0.002000,1.037000,127,127,127,tap
1764138769537,0,-0.082000,-0.002000,1.035000,127,127,127,tap
1764138769557,0,-0.090000,-0.004000,1.030000,126,127,126,tap
1764138769576,0,-0.104000,-0.003000,1.023000,126,127,127,tap
1764138769597,0,-0.111000,-0.008000,1.023000,126,127,126,tap
1764138769618,0,-0.114000,-0.013000,1.032000,126,127,126,tap
1764138769638,0,-0.097000,-0.014000,1.027000,126,127,126,tap
1764138769660,0,-0.069000,-0.005000,1.005000,126,127,126,tap
1764138769680,0,-0.063000,-0.011000,1.021000,126,127,127,tap
1764138769701,0,-0.063000,-0.017000,1.027000,127,127,127,tap
1764138769721,0,-0.072000,-0.017000,1.028000,127,127,127,tap
1764138769740,0,-0.070000,-0.017000,1.032000,127,127,127,tap
1764138769761,0,-0.092000,-0.023000,1.048000,127,127,126,tap
1764138769781,0,-0.080000,-0.012000,1.016000,126,127,126,tap
1764138769802,0,-0.069000,-0.003000,1.011000,126,127,126,tap
1764138769821,0,-0.079000,0,1.005000,126,127,126,tap
1764138769841,0,-0.079000,0,1.005000,126,127,126,tap
1764138769861,0,-0.094000,-0.011000,1.032000,126,127,126,tap
1764138769882,0,-0.087000,0.003000,1.008000,126,127,127,tap
1764138769902,0,-0.098000,-0.005000,1.009000,126,127,127,tap
1764138769923,0,-0.097000,-0.007000,1.018000,127,127,127,tap
1764138769945,0,-0.120000,-0.012000,1.027000,127,127,127,tap
1764138769964,0,-0.123000,-0.015000,1.032000,127,127,127,tap
1764138769985,0,-0.141000,-0.027000,1.062000,127,127,127,tap
1764138770005,0,-0.135000,-0.025000,1.057000,126,127,126,tap
1764138770025,0,-0.139000,-0.018000,1.054000,126,127,126,tap
1764138770046,0,-0.119000,-0.010000,1.042000,126,127,127,tap
1764138770067,0,-0.099000,-0.006000,1.038000,127,127,127,tap
1764138770087,0,-0.088000,-0.002000,1.030000,126,127,127,tap
1764138770109,0,-0.087000,0,1.028000,127,127,127,tap
1764138770129,0,-0.057000,-0.006000,1.038000,127,127,126,tap
1764138770149,0,-0.072000,-0.015000,1.061000,126,127,126,tap
1764138770171,0,-0.087000,-0.017000,1.060000,127,127,126,tap
1764138770192,0,-0.082000,-0.019000,1.065000,127,127,127,tap
1764138770213,0,-0.096000,-0.024000,1.069000,127,127,127,tap
1764138770234,0,-0.121000,-0.034000,1.081000,127,127,127,tap
1764138770255,0,-0.133000,-0.025000,1.072000,127,127,127,tap
1764138770275,0,-0.116000,-0.021000,1.065000,127,127,127,tap
1764138770296,0,-0.110000,-0.016000,1.056000,127,127,127,tap
1764138770316,0,-0.103000,-0.011000,1.044000,127,127,126,tap
1764138770335,0,-0.094000,-0.017000,1.030000,127,127,127,tap
1764138770356,0,-0.105000,-0.023000,1.061000,127,127,126,tap
1764138770375,0,-0.097000,-0.028000,1.063000,126,127,126,tap
1764138770396,0,-0.109000,-0.030000,1.064000,126,127,126,tap
1764138770418,0,-0.106000,-0.026000,1.064000,126,127,126,tap
1764138770438,0,-0.092000,-0.019000,1.060000,126,127,126,tap
1764138770459,0,-0.091000,-0.015000,1.037000,126,127,126,tap
1764138770480,0,-0.098000,-0.011000,1.033000,126,127,126,tap
1764138770500,0,-0.098000,-0.013000,1.030000,126,127,126,tap
1764138770521,0,-0.110000,-0.016000,1.029000,126,127,127,tap
1764138770541,0,-0.109000,-0.021000,1.037000,127,127,127,tap
1764138770562,0,-0.104000,-0.020000,1.035000,127,126,127,tap
1764138770582,0,-0.101000,-0.012000,1.033000,127,126,127,tap
1764138770603,0,-0.053000,-0.015000,1.013000,127,127,127,tap
1764138770623,0,-0.051000,-0.013000,1.007000,127,127,126,tap
1764138770644,0,-0.055000,-0.014000,1.007000,127,127,126,tap
1764138770665,0,-0.070000,-0.026000,1.014000,126,127,126,tap
1764138770686,0,-0.055000,-0.020000,1.009000,126,127,126,tap
1764138770707,0,-0.098000,-0.018000,1.035000,126,127,126,tap
1764138770726,0,-0.105000,-0.016000,1.035000,127,127,127,tap
1764138770747,0,-0.110000,-0.020000,1.052000,127,127,127,tap
1764138770767,0,-0.115000,-0.025000,1.059000,127,126,127,tap
1764138770787,0,-0.106000,-0.021000,1.048000,127,127,127,tap
1764138770807,0,-0.111000,-0.021000,1.055000,127,126,127,tap
1764138770827,0,-0.110000,-0.023000,1.056000,127,127,127,tap
1764138770847,0,-0.104000,-0.022000,1.046000,127,127,127,tap
1764138770868,0,-0.123000,-0.027000,1.057000,127,127,127,tap
1764138770889,0,-0.121000,-0.029000,1.058000,126,127,127,tap
1764138770909,0,-0.122000,-0.025000,1.052000,127,127,127,tap
1764138770930,0,-0.124000,-0.021000,1.041000,126,127,126,tap
1764138770951,0,-0.115000,-0.015000,1.033000,126,127,126,tap
1764138770971,0,-0.104000,-0.010000,1.028000,126,127,126,tap
1764138770992,0,-0.087000,-0.006000,1.024000,126,127,126,tap
1764138771013,0,-0.071000,-0.001000,1.016000,126,127,126,tap
1764138771033,0,-0.086000,-0.007000,1.031000,127,127,127,tap
1764138771053,0,-0.097000,-0.016000,1.046000,126,127,126,tap
1764138771074,0,-0.078000,-0.023000,1.037000,126,127,126,tap
1764138771094,0,-0.075000,-0.022000,1.023000,126,127,126,tap
1764138771115,0,-0.097000,-0.025000,1.026000,126,127,126,tap
1764138771135,0,-0.085000,-0.020000,1.022000,126,127,126,tap
1764138771156,0,-0.076000,-0.004000,0.995000,126,127,126,tap
1764138771176,0,-0.097000,-0.007000,1.009000,127,127,127,tap
1764138771197,0,-0.133000,0.019000,0.980000,126,127,126,tap
1764138771218,0,-0.133000,0.028000,0.963000,126,127,126,tap
1764138771238,0,-0.119000,0.029000,0.962000,126,127,126,tap
1764138771259,0,-0.141000,0.020000,0.989000,126,127,126,tap
1764138771279,0,-0.139000,0.020000,0.991000,126,127,126,tap
1764138771299,0,-0.065000,-0.010000,1.030000,126,127,126,tap
1764138771320,0,-0.070000,-0.019000,1.043000,127,127,126,tap
1764138771340,0,-0.076000,-0.035000,1.069000,127,127,126,tap
1764138771361,0,-0.096000,-0.039000,1.072000,127,127,127,tap
1764138771381,0,-0.088000,-0.039000,1.075000,127,127,127,tap
1764138771402,0,-0.075000,-0.022000,1.051000,127,127,127,tap
1764138771422,0,-0.073000,-0.008000,1.026000,127,127,127,tap
1764138771444,0,-0.058000,-0.007000,1.030000,127,127,126,tap
1764138771464,0,-0.100000,-0.019000,1.049000,127,127,127,tap
1764138771485,0,-0.116000,-0.026000,1.056000,127,127,127,tap
1764138771506,0,-0.149000,-0.033000,1.064000,127,126,127,tap
1764138771525,0,-0.146000,-0.034000,1.075000,127,126,127,tap
1764138771546,0,-0.154000,-0.035000,1.078000,127,126,127,tap
1764138771566,0,-0.122000,-0.026000,1.065000,127,127,127,tap
1764138771586,0,-0.096000,-0.013000,1.050000,127,127,127,tap
1764138771607,0,-0.084000,-0.012000,1.053000,127,127,127,tap
1764138771628,0,-0.090000,-0.010000,1.036000,126,127,127,tap
1764138771648,0,-0.089000,-0.009000,1.034000,126,127,126,tap
1764138771668,0,-0.088000,-0.011000,1.025000,126,127,126,tap
1764138771688,0,-0.102000,-0.023000,1.060000,126,127,126,tap
1764138771709,0,-0.096000,-0.020000,1.060000,126,127,127,tap
1764138771730,0,-0.074000,-0.016000,1.053000,126,127,127,tap
1764138771750,0,-0.075000,-0.016000,1.060000,127,127,127,tap
1764138771771,0,-0.088000,-0.019000,1.067000,127,127,127,tap
1764138771791,0,-0.075000,-0.006000,1.028000,126,127,126,tap
1764138771812,0,-0.077000,-0.005000,1.031000,126,127,126,tap
1764138771832,0,-0.089000,-0.010000,1.044000,126,127,126,tap
1764138771853,0,-0.081000,-0.012000,1.048000,127,127,127,tap
1764138771873,0,-0.067000,-0.006000,1.039000,127,127,127,tap
1764138771894,0,-0.072000,-0.008000,1.043000,127,127,127,tap
1764138771914,0,-0.086000,-0.015000,1.051000,127,126,127,tap
1764138771934,0,-0.096000,-0.013000,1.037000,126,127,126,tap
1764138771955,0,-0.088000,-0.016000,1.044000,126,127,126,tap
1764138771975,0,-0.072000,-0.007000,1.022000,126,127,126,tap
1764138771997,0,-0.056000,-0.004000,1.013000,126,127,126,tap
1764138772019,0,-0.049000,0,1.013000,126,127,126,tap
1764138772039,0,-0.038000,0.002000,0.989000,126,127,126,tap
1764138772059,0,-0.074000,-0.003000,0.994000,126,127,126,tap
1764138772078,0,-0.089000,-0.015000,1.027000,126,127,126,tap
1764138772099,0,-0.114000,-0.022000,1.039000,126,127,126,tap
1764138772119,0,-0.124000,-0.028000,1.046000,126,127,126,tap
1764138772140,0,-0.153000,-0.035000,1.079000,126,127,126,tap
1764138772160,0,-0.127000,-0.029000,1.073000,126,127,126,tap
1764138772180,0,-0.139000,-0.031000,1.068000,126,127,126,tap
1764138772201,0,-0.098000,-0.016000,1.044000,127,127,127,tap
1764138772221,0,-0.082000,-0.013000,1.037000,127,127,127,tap
1764138772241,0,-0.091000,-0.013000,1.035000,126,127,127,tap
1764138772263,0,-0.087000,-0.010000,1.033000,126,127,127,tap
1764138772284,0,-0.088000,-0.008000,1.022000,126,127,126,tap
1764138772303,0,-0.102000,-0.018000,1.036000,126,127,126,tap
1764138772324,0,-0.100000,-0.015000,1.034000,126,127,126,tap
1764138772344,0,-0.090000,-0.011000,1.024000,126,127,126,tap
1764138772365,0,-0.083000,-0.011000,1.019000,126,127,126,tap
1764138772385,0,-0.084000,-0.010000,1.025000,127,127,126,tap
1764138772405,4,-0.071000,-0.002000,1.014000,127,127,127,tap
1764138772426,0,-0.081000,-0.006000,1.020000,126,127,127,tap
1764138772446,0,-0.084000,-0.005000,1.022000,126,127,126,tap
1764138772467,0,-0.098000,-0.013000,1.029000,126,127,126,tap
1764138772488,0,-0.110000,-0.019000,1.037000,126,127,126,tap
1764138772510,0,-0.101000,-0.017000,1.034000,126,127,126,tap
1764138772531,0,-0.111000,-0.022000,1.036000,126,127,126,tap
1764138772552,0,-0.116000,-0.022000,1.025000,126,127,126,tap
1764138772573,0,-0.094000,-0.017000,1.009000,126,127,126,tap
1764138772594,0,-0.082000,-0.016000,1.012000,127,127,127,tap
1764138772615,0,-0.079000,-0.014000,1.007000,127,127,127,tap
1764138772635,0,-0.081000,-0.014000,1.016000,127,127,127,tap
1764138772655,0,-0.079000,-0.009000,1.022000,127,127,127,tap
1764138772675,0,-0.103000,-0.008000,1.039000,126,127,126,tap
1764138772696,0,-0.115000,-0.006000,1.040000,126,127,127,tap
1764138772718,0,-0.106000,-0.007000,1.039000,126,127,127,tap
1764138772739,0,-0.100000,-0.007000,1.039000,126,127,127,tap
1764138772760,0,-0.111000,-0.007000,1.034000,126,127,127,tap
1764138772780,0,-0.110000,-0.014000,1.030000,126,127,126,tap
1764138772800,0,-0.104000,-0.024000,1.033000,126,127,126,tap
1764138772821,0,-0.109000,-0.028000,1.042000,126,127,126,tap
1764138772841,0,-0.113000,-0.030000,1.049000,126,127,126,tap
1764138772862,0,-0.102000,-0.031000,1.050000,126,127,126,tap
1764138772882,0,-0.114000,-0.027000,1.062000,127,127,127,tap
1764138772903,0,-0.126000,-0.026000,1.060000,127,127,127,tap
1764138772923,0,-0.116000,-0.024000,1.057000,127,127,127,tap
1764138772943,0,-0.127000,-0.020000,1.051000,126,127,126,tap
1764138772963,0,-0.125000,-0.022000,1.050000,126,127,126,tap
1764138772984,0,-0.118000,-0.019000,1.042000,126,127,126,tap
1764138773005,0,-0.111000,-0.017000,1.038000,126,127,126,tap
1764138773026,6,-0.099000,-0.019000,1.030000,126,127,126,tap
1764138773046,0,-0.094000,-0.028000,1.045000,126,127,126,tap
1764138773067,0,-0.093000,-0.030000,1.048000,126,127,126,tap
1764138773087,0,-0.101000,-0.033000,1.052000,126,127,126,tap
1764138773108,0,-0.103000,-0.034000,1.056000,126,127,126,tap
1764138773128,0,-0.126000,-0.033000,1.065000,126,127,126,tap
1764138773147,0,-0.135000,-0.031000,1.070000,127,127,127,tap
1764138773168,0,-0.149000,-0.031000,1.071000,126,127,127,tap
1764138773187,0,-0.138000,-0.029000,1.078000,127,127,127,tap
1764138773208,0,-0.119000,-0.024000,1.071000,127,127,126,tap
1764138773228,0,-0.106000,-0.022000,1.058000,126,127,126,tap
1764138773249,0,-0.110000,-0.029000,1.062000,126,127,126,tap
1764138773270,0,-0.172000,-0.040000,1.073000,126,127,126,tap
1764138773290,0,-0.176000,-0.044000,1.081000,127,127,127,tap
1764138773311,0,-0.186000,-0.044000,1.078000,126,127,126,tap
1764138773332,0,-0.183000,-0.041000,1.073000,127,127,127,tap
1764138773352,0,-0.166000,-0.032000,1.069000,127,127,127,tap
1764138773372,0,-0.112000,-0.019000,1.043000,126,127,126,tap
1764138773392,0,-0.112000,-0.005000,1.031000,127,127,127,tap
1764138773413,0,-0.108000,-0.004000,1.038000,127,127,127,tap
1764138773433,0,-0.104000,-0.005000,1.040000,126,127,126,tap
1764138773453,0,-0.114000,-0.009000,1.046000,126,127,126,tap
1764138773474,0,-0.110000,-0.008000,1.047000,126,127,127,tap
1764138773493,0,-0.107000,-0.020000,1.050000,126,127,126,tap
1764138773514,2,-0.111000,-0.021000,1.047000,127,127,127,tap
1764138773535,0,-0.114000,-0.026000,1.056000,126,127,126,tap
1764138773557,0,-0.126000,-0.031000,1.061000,126,127,126,tap
1764138773578,0,-0.138000,-0.035000,1.066000,126,127,126,tap
1764138773599,0,-0.137000,-0.034000,1.066000,126,127,126,tap
1764138773620,0,-0.138000,-0.034000,1.068000,126,127,126,tap
1764138773640,0,-0.126000,-0.024000,1.054000,126,127,126,tap
1764138773661,0,-0.108000,-0.017000,1.049000,127,127,126,tap
1764138773681,0,-0.101000,-0.013000,1.047000,126,127,126,tap
1764138773701,0,-0.059000,0,1.030000,126,127,126,tap
1764138773722,0,-0.052000,0,1.026000,126,127,126,tap
1764138773742,0,-0.063000,-0.006000,1.025000,126,127,126,tap
1764138773762,0,-0.063000,-0.008000,1.025000,126,127,126,tap
1764138773784,24,-0.082000,-0.013000,1.031000,126,127,126,tap
1764138773805,0,-0.103000,-0.022000,1.042000,126,127,126,tap
1764138773826,0,-0.122000,-0.029000,1.049000,126,127,126,tap
1764138773848,0,-0.123000,-0.025000,1.051000,126,127,126,tap
1764138773868,0,-0.123000,-0.024000,1.052000,126,127,126,tap
1764138773889,0,-0.134000,-0.025000,1.056000,126,127,126,tap
1764138773909,0,-0.115000,-0.014000,1.045000,126,127,126,tap
1764138773930,0,-0.109000,-0.010000,1.039000,126,127,127,tap
1764138773951,0,-0.086000,-0.001000,1.022000,126,127,126,tap
1764138773971,0,-0.088000,-0.006000,1.024000,126,127,126,tap
1764138773992,0,-0.105000,-0.016000,1.032000,126,127,126,tap
1764138774012,0,-0.092000,-0.014000,1.028000,126,127,126,tap
1764138774034,13,-0.104000,-0.022000,1.037000,126,127,126,tap
1764138774056,0,-0.121000,-0.027000,1.044000,127,127,127,tap
1764138774077,0,-0.125000,-0.028000,1.048000,127,127,127,tap
1764138774097,0,-0.118000,-0.022000,1.047000,127,127,127,tap
1764138774117,0,-0.122000,-0.020000,1.051000,127,127,127,tap
1764138774137,0,-0.119000,-0.016000,1.051000,127,127,127,tap
1764138774158,0,-0.093000,-0.005000,1.042000,126,127,127,tap
1764138774179,0,-0.100000,-0.009000,1.040000,126,127,126,tap
1764138774202,0,-0.094000,-0.010000,1.035000,126,127,126,tap
1764138774224,0,-0.086000,-0.012000,1.031000,126,127,126,tap
1764138777608,0,-0.106000,-0.019000,1.043000,126,127,126,tap
1764138777628,0,-0.107000,-0.021000,1.044000,126,127,127,tap
1764138777649,0,-0.108000,-0.021000,1.044000,126,127,126,tap
1764138777669,0,-0.107000,-0.021000,1.043000,126,127,126,tap
1764138777689,0,-0.108000,-0.021000,1.044000,126,127,127,tap
1764138777710,0,-0.108000,-0.021000,1.042000,127,127,127,tap
1764138777730,0,-0.108000,-0.021000,1.043000,127,127,126,tap
1764138777751,0,-0.106000,-0.021000,1.042000,127,127,126,tap
1764138777772,0,-0.105000,-0.023000,1.041000,127,127,127,tap
1764138777793,0,-0.105000,-0.020000,1.042000,126,127,127,tap
1764138777813,0,-0.105000,-0.020000,1.040000,126,127,127,tap
1764138777834,0,-0.107000,-0.019000,1.041000,126,127,127,tap
1764138777856,0,-0.108000,-0.018000,1.042000,126,127,127,tap
1764138777877,0,-0.109000,-0.021000,1.043000,126,127,127,tap
1764138777897,0,-0.108000,-0.021000,1.042000,126,127,127,tap
1764138777918,0,-0.107000,-0.022000,1.042000,126,127,127,tap
1764138777938,0,-0.107000,-0.022000,1.042000,126,127,126,tap
1764138777958,0,-0.105000,-0.021000,1.038000,127,127,127,tap
1764138777979,0,-0.105000,-0.019000,1.041000,127,127,127,tap
1764138778000,0,-0.108000,-0.018000,1.039000,126,127,127,tap
1764138778020,0,-0.106000,-0.018000,1.042000,126,127,127,tap
1764138778040,0,-0.109000,-0.019000,1.046000,126,127,127,tap
1764138778061,0,-0.092000,-0.023000,1.067000,127,127,127,tap
1764138778083,230,-0.090000,-0.022000,1.056000,127,127,127,tap
1764138778105,103,-0.091000,-0.021000,1.058000,127,127,127,tap
1764138778126,0,-0.093000,-0.022000,1.053000,127,127,127,tap
1764138778147,0,-0.090000,-0.019000,1.053000,127,127,126,tap
1764138778166,0,-0.106000,-0.017000,1.031000,126,127,126,tap
1764138778187,0,-0.105000,-0.019000,1.042000,126,127,126,tap
1764138778206,29,-0.106000,-0.017000,1.041000,126,127,127,tap
1764138778227,0,-0.106000,-0.017000,1.041000,126,127,127,tap
1764138778246,0,-0.107000,-0.020000,1.039000,126,127,126,tap
1764138778267,0,-0.103000,-0.021000,1.034000,126,127,126,tap
1764138778289,0,-0.108000,-0.023000,1.047000,126,127,126,tap
1764138778310,4,-0.107000,-0.021000,1.046000,126,127,126,tap
1764138778331,89,-0.107000,-0.019000,1.049000,127,127,126,tap
1764138778351,0,-0.109000,-0.020000,1.051000,127,127,126,tap
1764138778371,0,-0.109000,-0.018000,1.047000,127,127,126,tap
1764138778392,0,-0.108000,-0.019000,1.041000,126,127,126,tap
1764138778411,152,-0.107000,-0.026000,1.032000,126,127,126,tap
1764138778431,89,-0.110000,-0.027000,1.035000,126,127,127,tap
1764138778452,0,-0.114000,-0.026000,1.041000,126,127,127,tap
1764138778472,0,-0.110000,-0.027000,1.040000,127,127,127,tap
1764138778492,0,-0.107000,-0.024000,1.039000,127,127,127,tap
1764138778513,0,-0.105000,-0.019000,1.043000,127,127,127,tap
1764138778533,0,-0.099000,-0.019000,1.048000,127,127,127,tap
1764138778554,93,-0.105000,-0.016000,1.049000,127,127,127,tap
1764138778576,22,-0.106000,-0.020000,1.052000,127,127,127,tap
1764138778596,0,-0.104000,-0.020000,1.050000,127,127,126,tap
1764138778618,0,-0.103000,-0.020000,1.047000,127,127,127,tap
1764138778637,0,-0.105000,-0.020000,1.041000,127,127,127,tap
1764138778658,0,-0.104000,-0.023000,1.043000,127,127,127,tap
1764138778678,13,-0.106000,-0.020000,1.046000,127,127,127,tap
1764138778699,0,-0.109000,-0.019000,1.047000,127,127,127,tap
1764138778719,0,-0.106000,-0.018000,1.048000,126,127,127,tap
1764138778741,0,-0.079000,-0.023000,1.044000,126,127,127,tap
1764138778761,21,-0.083000,-0.025000,1.041000,126,127,126,tap
1764138778782,79,-0.084000,-0.028000,1.044000,126,127,126,tap
1764138778804,17,-0.086000,-0.029000,1.042000,126,127,126,tap
1764138778825,0,-0.086000,-0.031000,1.043000,127,127,126,tap
1764138778845,0,-0.112000,-0.024000,1.041000,127,127,126,tap
1764138778868,0,-0.121000,-0.025000,1.047000,127,127,127,tap
1764138778889,71,-0.121000,-0.023000,1.046000,127,127,127,tap
1764138778909,37,-0.124000,-0.021000,1.049000,127,127,127,tap
1764138778930,0,-0.122000,-0.018000,1.047000,127,127,127,tap
1764138778951,0,-0.107000,-0.013000,1.040000,126,127,127,tap
1764138778971,0,-0.114000,-0.014000,1.038000,126,127,127,tap
1764138778991,0,-0.113000,-0.015000,1.037000,126,127,127,tap
1764138779012,68,-0.119000,-0.016000,1.040000,126,127,127,tap
1764138779032,76,-0.119000,-0.020000,1.040000,126,127,127,tap
1764138779056,10,-0.119000,-0.022000,1.039000,126,127,127,tap
1764138779076,0,-0.108000,-0.022000,1.042000,126,127,127,tap
1764138779096,0,-0.107000,-0.022000,1.040000,126,127,126,tap
1764138779117,87,-0.108000,-0.022000,1.044000,126,127,126,tap
1764138779136,111,-0.111000,-0.021000,1.045000,127,127,126,tap
1764138779156,29,-0.111000,-0.019000,1.048000,127,127,127,tap
1764138779177,0,-0.112000,-0.017000,1.046000,127,127,127,tap
1764138779197,0,-0.111000,-0.017000,1.047000,127,127,127,tap
1764138779218,5,-0.113000,-0.017000,1.044000,126,127,127,tap
1764138779238,80,-0.114000,-0.018000,1.044000,126,127,127,tap
1764138779258,96,-0.116000,-0.020000,1.045000,126,127,127,tap
1764138779279,24,-0.115000,-0.021000,1.044000,126,127,126,tap
1764138779301,0,-0.109000,-0.020000,1.044000,126,127,126,tap
1764138779320,0,-0.098000,-0.021000,1.038000,126,127,126,tap
1764138779341,0,-0.099000,-0.022000,1.037000,126,127,126,tap
1764138779361,70,-0.098000,-0.020000,1.037000,126,127,126,tap
1764138779382,109,-0.100000,-0.020000,1.039000,126,127,126,tap
1764138779402,0,-0.099000,-0.018000,1.040000,126,127,127,tap
1764138779423,0,-0.109000,-0.016000,1.044000,126,127,127,tap
1764138779443,0,-0.105000,-0.014000,1.044000,126,127,126,tap
1764138779464,19,-0.098000,-0.013000,1.035000,126,127,127,tap
1764138779484,54,-0.102000,-0.013000,1.037000,126,127,127,tap
1764138779504,52,-0.103000,-0.015000,1.036000,126,127,127,tap
1764138779524,0,-0.102000,-0.016000,1.033000,126,127,127,tap
1764138779546,0,-0.108000,-0.018000,1.042000,126,127,127,tap
1764138779568,0,-0.107000,-0.018000,1.041000,126,127,127,tap
1764138779589,0,-0.106000,-0.018000,1.042000,126,127,127,tap
1764138779608,107,-0.107000,-0.017000,1.044000,126,127,127,tap
1764138779630,21,-0.109000,-0.016000,1.045000,126,127,127,tap
1764138779650,21,-0.107000,-0.016000,1.045000,126,127,127,tap
1764138779671,0,-0.106000,-0.015000,1.043000,126,127,127,tap
1764138779690,0,-0.110000,-0.017000,1.041000,126,127,126,tap
1764138779711,51,-0.111000,-0.019000,1.042000,126,127,126,tap
1764138779732,124,-0.113000,-0.019000,1.042000,126,127,126,tap
1764138779753,43,-0.113000,-0.019000,1.041000,126,127,126,tap
1764138779774,0,-0.109000,-0.019000,1.040000,126,127,126,tap
1764138779794,0,-0.107000,-0.019000,1.039000,126,127,126,tap
1764138779816,0,-0.107000,-0.018000,1.041000,126,127,127,tap
1764138779837,0,-0.110000,-0.018000,1.034000,126,127,127,tap
1764138779858,27,-0.111000,-0.018000,1.037000,126,127,127,tap
1764138779879,37,-0.114000,-0.017000,1.039000,126,127,127,tap
1764138779900,0,-0.110000,-0.016000,1.036000,126,127,127,tap
1764138779920,0,-0.106000,-0.016000,1.043000,126,127,127,tap
1764138779940,0,-0.107000,-0.016000,1.042000,126,127,127,tap
1764138779960,0,-0.107000,-0.019000,1.037000,126,127,127,tap
1764138779983,22,-0.108000,-0.020000,1.038000,126,127,126,tap
1764138780003,79,-0.111000,-0.020000,1.040000,126,127,126,tap
1764138780025,56,-0.111000,-0.021000,1.040000,126,127,126,tap
1764138780045,21,-0.109000,-0.020000,1.038000,126,127,127,tap
1764138780066,5,-0.106000,-0.017000,1.041000,126,127,127,tap
1764138780086,5,-0.107000,-0.016000,1.041000,126,127,127,tap
1764138780106,5,-0.107000,-0.016000,1.042000,126,127,127,tap
1764138780127,4,-0.106000,-0.016000,1.043000,126,127,127,tap
1764138780148,5,-0.107000,-0.016000,1.044000,126,127,126,tap
1764138780168,7,-0.107000,-0.017000,1.044000,126,127,127,tap
1764138780188,5,-0.106000,-0.016000,1.044000,126,127,127,tap
1764138780209,8,-0.107000,-0.015000,1.043000,126,127,127,tap
1764138780230,20,-0.107000,-0.016000,1.043000,126,127,127,tap
1764138780251,18,-0.108000,-0.017000,1.043000,126,127,127,tap
1764138780272,5,-0.108000,-0.018000,1.042000,126,127,126,tap
1764138780291,0,-0.108000,-0.019000,1.040000,126,127,126,tap
1764138780312,14,-0.107000,-0.020000,1.040000,126,127,126,tap
1764138780331,14,-0.108000,-0.018000,1.041000,126,127,127,tap
1764138780352,24,-0.105000,-0.019000,1.042000,126,127,127,tap
1764138780373,0,-0.106000,-0.018000,1.042000,126,127,127,tap
1764138780393,0,-0.105000,-0.017000,1.044000,126,127,127,tap
1764138780413,0,-0.106000,-0.017000,1.044000,126,127,127,tap
1764138780434,25,-0.111000,-0.017000,1.041000,126,127,127,tap
1764138780454,70,-0.110000,-0.018000,1.043000,126,127,127,tap
1764138780475,57,-0.111000,-0.019000,1.043000,126,127,127,tap
1764138780496,0,-0.109000,-0.018000,1.042000,126,127,127,tap
1764138780518,0,-0.106000,-0.018000,1.044000,126,127,127,tap
1764138780538,0,-0.106000,-0.018000,1.042000,126,127,127,tap
1764138780557,0,-0.104000,-0.017000,1.040000,126,127,126,tap
1764138780578,0,-0.105000,-0.017000,1.041000,126,127,126,tap
1764138780598,17,-0.108000,-0.018000,1.044000,126,127,127,tap
1764138780619,0,-0.109000,-0.019000,1.043000,126,127,127,tap
1764138780639,0,-0.106000,-0.019000,1.042000,126,127,127,tap
1764138780658,0,-0.107000,-0.018000,1.041000,126,127,127,tap
1764138780679,0,-0.107000,-0.017000,1.042000,126,127,126,tap
1764138780699,37,-0.108000,-0.019000,1.043000,126,127,126,tap
1764138780719,90,-0.111000,-0.020000,1.046000,126,127,126,tap
1764138780740,6,-0.111000,-0.021000,1.046000,126,127,126,tap
1764138780760,0,-0.110000,-0.023000,1.044000,126,127,126,tap
1764138780781,0,-0.109000,-0.021000,1.042000,126,127,126,tap
1764138780803,0,-0.111000,-0.019000,1.045000,126,127,126,tap
1764138780824,21,-0.111000,-0.017000,1.044000,126,127,127,tap
1764138780844,96,-0.112000,-0.015000,1.046000,126,127,127,tap
1764138780865,62,-0.112000,-0.014000,1.047000,126,127,127,tap
1764138780885,0,-0.110000,-0.016000,1.047000,126,127,127,tap
1764138780905,0,-0.106000,-0.017000,1.044000,126,127,127,tap
1764138780926,0,-0.106000,-0.018000,1.042000,126,127,126,tap
1764138780947,0,-0.097000,-0.020000,1.040000,126,127,126,tap
1764138780969,154,-0.104000,-0.021000,1.042000,126,127,126,tap
1764138780989,141,-0.102000,-0.021000,1.044000,126,127,126,tap
1764138781010,12,-0.099000,-0.020000,1.042000,126,127,126,tap
1764138781032,0,-0.106000,-0.018000,1.046000,126,127,127,tap
1764138781053,0,-0.105000,-0.015000,1.044000,126,127,127,tap
1764138781073,0,-0.101000,-0.015000,1.043000,126,127,127,tap
1764138781093,0,-0.104000,-0.016000,1.039000,126,127,127,tap
1764138781114,122,-0.109000,-0.017000,1.043000,126,127,127,tap
1764138781134,47,-0.112000,-0.018000,1.043000,126,127,127,tap
1764138781155,0,-0.107000,-0.020000,1.044000,126,127,127,tap
1764138781175,0,-0.105000,-0.020000,1.043000,127,127,126,tap
1764138781196,0,-0.105000,-0.018000,1.045000,127,127,126,tap
1764138781216,0,-0.105000,-0.021000,1.044000,126,127,126,tap
1764138781236,0,-0.108000,-0.020000,1.044000,126,127,126,tap
1764138781256,90,-0.112000,-0.017000,1.044000,126,127,127,tap
1764138781278,20,-0.112000,-0.018000,1.043000,126,127,127,tap
1764138781299,0,-0.110000,-0.019000,1.042000,126,127,127,tap
1764138781319,0,-0.109000,-0.016000,1.040000,126,127,127,tap
1764138781340,0,-0.106000,-0.015000,1.040000,126,127,127,tap
1764138781360,105,-0.104000,-0.018000,1.042000,126,127,126,tap
1764138781381,153,-0.106000,-0.019000,1.044000,126,127,127,tap
1764138781401,34,-0.107000,-0.017000,1.045000,126,127,127,tap
1764138781421,0,-0.105000,-0.019000,1.044000,126,127,127,tap
1764138781442,0,-0.107000,-0.016000,1.043000,126,127,126,tap
1764138781462,0,-0.106000,-0.017000,1.044000,126,127,126,tap
1764138781484,0,-0.107000,-0.019000,1.042000,126,127,126,tap
1764138781505,0,-0.110000,-0.018000,1.043000,126,127,126,tap
1764138781526,36,-0.113000,-0.018000,1.044000,126,127,126,tap
1764138781546,18,-0.113000,-0.020000,1.043000,126,127,126,tap
1764138781567,0,-0.109000,-0.021000,1.040000,126,127,126,tap
1764138781588,0,-0.108000,-0.018000,1.041000,126,127,127,tap
1764138781608,0,-0.107000,-0.017000,1.040000,126,127,127,tap
1764138781630,41,-0.108000,-0.019000,1.041000,126,127,127,tap
1764138781650,84,-0.109000,-0.019000,1.042000,126,127,126,tap
1764138781672,21,-0.109000,-0.020000,1.040000,126,127,126,tap
1764138781692,0,-0.107000,-0.020000,1.040000,126,127,126,tap
1764138781713,0,-0.106000,-0.017000,1.041000,126,127,126,tap
1764138781734,0,-0.105000,-0.017000,1.040000,126,127,127,tap
1764138781755,0,-0.103000,-0.019000,1.038000,126,127,127,tap
1764138781775,0,-0.105000,-0.017000,1.042000,126,127,127,tap
1764138781796,20,-0.108000,-0.016000,1.040000,126,127,127,tap
1764138781816,0,-0.105000,-0.018000,1.041000,126,127,127,tap
1764138781837,0,-0.102000,-0.017000,1.037000,126,127,126,tap
1764138781857,0,-0.106000,-0.014000,1.041000,126,127,127,tap
1764138781878,0,-0.105000,-0.019000,1.040000,126,127,126,tap
1764138781898,0,-0.107000,-0.019000,1.038000,126,127,126,tap
1764138781919,87,-0.112000,-0.020000,1.042000,126,127,127,tap
1764138781940,17,-0.112000,-0.023000,1.042000,126,127,127,tap
1764138781960,0,-0.110000,-0.023000,1.041000,126,127,126,tap
1764138781982,0,-0.109000,-0.020000,1.042000,126,127,126,tap
1764138782003,0,-0.109000,-0.021000,1.041000,127,127,126,tap
1764138782024,0,-0.108000,-0.021000,1.040000,127,127,126,tap
1764138782044,0,-0.106000,-0.017000,1.042000,127,127,126,tap
1764138782064,0,-0.106000,-0.016000,1.044000,126,127,127,tap
1764138782085,0,-0.106000,-0.017000,1.046000,126,127,127,tap
1764138782105,0,-0.104000,-0.015000,1.045000,126,127,127,tap
1764138782126,0,-0.103000,-0.012000,1.046000,126,127,127,tap
1764138782147,0,-0.107000,-0.018000,1.043000,126,127,127,tap
1764138782167,0,-0.110000,-0.018000,1.043000,126,127,127,tap
1764138782188,55,-0.112000,-0.019000,1.044000,126,127,127,tap
1764138782209,36,-0.109000,-0.023000,1.044000,126,127,127,tap
1764138782230,0,-0.107000,-0.021000,1.040000,126,127,127,tap
1764138782250,0,-0.106000,-0.019000,1.040000,126,127,127,tap
1764138782271,0,-0.104000,-0.019000,1.039000,126,127,127,tap
1764138782291,0,-0.104000,-0.019000,1.039000,126,127,126,tap
1764138782312,49,-0.106000,-0.015000,1.046000,126,127,126,tap
1764138782332,82,-0.109000,-0.015000,1.050000,126,127,127,tap
1764138782353,0,-0.107000,-0.017000,1.047000,126,127,127,tap
1764138782372,0,-0.106000,-0.017000,1.050000,126,127,127,tap
1764138782392,0,-0.106000,-0.017000,1.050000,126,127,127,tap
1764138782414,0,-0.107000,-0.020000,1.041000,126,127,127,tap
1764138782434,0,-0.102000,-0.021000,1.047000,126,127,126,tap
1764138782456,7,-0.102000,-0.020000,1.055000,126,127,126,tap
1764138782477,75,-0.104000,-0.020000,1.053000,126,127,126,tap
1764138782498,7,-0.101000,-0.021000,1.054000,126,127,126,tap
1764138782518,0,-0.099000,-0.020000,1.051000,126,127,126,tap
1764138782538,0,-0.103000,-0.016000,1.045000,126,127,127,tap
1764138782559,0,-0.105000,-0.017000,1.041000,126,127,127,tap
1764138782580,0,-0.103000,-0.018000,1.038000,126,127,127,tap
1764138782601,72,-0.102000,-0.017000,1.042000,126,127,127,tap
1764138782621,23,-0.104000,-0.019000,1.043000,126,127,127,tap
1764138782642,0,-0.102000,-0.019000,1.038000,126,127,126,tap
1764138782664,0,-0.102000,-0.017000,1.043000,126,127,127,tap
1764138782684,0,-0.106000,-0.018000,1.040000,126,127,127,tap
1764138782705,0,-0.107000,-0.020000,1.044000,126,127,127,tap
1764138782726,0,-0.108000,-0.019000,1.046000,126,127,127,tap
1764138782746,38,-0.112000,-0.018000,1.048000,126,127,127,tap
1764138782767,0,-0.113000,-0.019000,1.049000,126,127,127,tap
1764138782787,0,-0.110000,-0.018000,1.045000,126,127,127,tap
1764138782807,0,-0.106000,-0.015000,1.045000,126,127,127,tap
1764138782828,0,-0.101000,-0.018000,1.042000,126,127,127,tap
1764138782848,0,-0.101000,-0.017000,1.043000,126,127,127,tap
1764138782869,84,-0.104000,-0.017000,1.044000,126,127,127,tap
1764138782890,45,-0.103000,-0.020000,1.045000,126,127,127,tap
1764138782910,0,-0.100000,-0.019000,1.042000,126,127,127,tap
1764138782932,0,-0.105000,-0.016000,1.042000,126,127,127,tap
1764138782953,0,-0.105000,-0.015000,1.040000,126,127,127,tap
1764138782974,0,-0.105000,-0.016000,1.041000,126,127,127,tap
1764138782995,0,-0.108000,-0.016000,1.041000,126,127,127,tap
1764138783015,72,-0.109000,-0.016000,1.049000,126,127,127,tap
1764138783036,0,-0.110000,-0.019000,1.047000,126,127,127,tap
1764138783056,0,-0.107000,-0.020000,1.045000,126,127,127,tap
1764138783076,0,-0.105000,-0.017000,1.044000,126,127,127,tap
1764138783097,0,-0.107000,-0.018000,1.039000,126,127,126,tap
1764138783117,0,-0.107000,-0.018000,1.039000,126,127,126,tap
1764138783137,81,-0.111000,-0.018000,1.044000,126,127,126,tap
1764138783158,112,-0.113000,-0.019000,1.044000,126,127,126,tap
1764138783180,30,-0.112000,-0.021000,1.041000,126,127,126,tap
1764138783199,0,-0.109000,-0.018000,1.042000,126,127,127,tap
1764138783220,0,-0.110000,-0.016000,1.041000,126,127,127,tap
1764138783240,0,-0.109000,-0.017000,1.041000,126,127,127,tap
1764138783261,0,-0.106000,-0.018000,1.040000,126,127,127,tap
1764138783281,162,-0.107000,-0.016000,1.045000,126,127,127,tap
1764138783301,114,-0.112000,-0.017000,1.043000,126,127,127,tap
1764138783321,17,-0.112000,-0.018000,1.044000,126,127,127,tap
1764138783341,0,-0.111000,-0.019000,1.037000,126,127,127,tap
1764138783361,0,-0.113000,-0.017000,1.038000,126,127,127,tap
1764138783382,0,-0.110000,-0.019000,1.041000,126,127,127,tap
1764138783402,0,-0.107000,-0.019000,1.043000,126,127,127,tap
1764138783424,0,-0.107000,-0.018000,1.051000,126,127,127,tap
1764138783444,119,-0.113000,-0.018000,1.051000,126,127,127,tap
1764138783465,96,-0.109000,-0.020000,1.053000,126,127,127,tap
1764138783486,9,-0.105000,-0.019000,1.048000,126,127,127,tap
1764138783507,0,-0.106000,-0.018000,1.045000,126,127,127,tap
1764138783528,0,-0.109000,-0.018000,1.044000,126,127,127,tap
1764138783549,0,-0.105000,-0.020000,1.042000,126,127,127,tap
1764138783568,27,-0.109000,-0.020000,1.049000,126,127,126,tap
1764138783588,150,-0.109000,-0.020000,1.049000,126,127,126,tap
1764138792800,42,0.015000,0.988000,0.055000,127,127,127,tap
1764138792820,39,0.014000,0.990000,0.056000,126,127,127,tap
1764138792842,36,0.014000,0.990000,0.056000,127,127,127,tap
1764138792862,30,0.016000,0.990000,0.056000,127,127,127,tap
1764138792882,28,0.016000,0.988000,0.056000,127,127,127,tap
1764138792903,22,0.013000,0.989000,0.054000,127,127,127,tap
1764138792923,9,0.013000,0.989000,0.054000,127,127,127,tap
1764138792944,0,0.013000,0.989000,0.054000,127,127,127,tap
1764138792964,5,0.015000,0.990000,0.048000,127,127,127,tap
1764138792985,13,0.018000,0.988000,0.051000,126,127,126,tap
1764138793005,9,0.019000,0.986000,0.054000,126,127,126,tap
1764138793026,6,0.020000,0.984000,0.054000,126,127,126,tap
1764138793047,0,0.017000,0.983000,0.059000,126,127,127,tap
1764138793067,0,0.016000,0.985000,0.059000,127,127,127,tap
1764138793088,0,0.015000,0.986000,0.060000,127,127,127,tap
1764138793108,0,0.014000,0.986000,0.059000,127,127,127,tap
1764138793129,0,0.013000,0.988000,0.057000,127,127,127,tap
1764138793149,0,0.014000,0.988000,0.058000,126,127,127,tap
1764138793170,0,0.015000,0.988000,0.059000,126,127,127,tap
1764138793190,6,0.015000,0.988000,0.057000,126,127,127,tap
1764138793211,38,0.016000,0.988000,0.054000,127,127,127,tap
1764138793231,54,0.015000,0.986000,0.063000,127,127,127,tap
1764138793252,70,0.015000,0.987000,0.054000,127,127,127,tap
1764138793273,73,0.013000,0.986000,0.060000,127,127,127,tap
1764138793294,76,0.011000,0.986000,0.061000,127,127,126,tap
1764138793315,69,0.011000,0.985000,0.055000,126,127,126,tap
1764138793336,73,0.010000,0.984000,0.064000,126,127,126,tap
1764138793355,90,0.011000,0.984000,0.071000,126,127,126,tap
1764138793376,113,0.014000,0.984000,0.069000,126,127,126,tap
1764138793397,127,0.016000,0.983000,0.070000,126,127,126,tap
1764138793418,138,0.017000,0.985000,0.068000,127,127,127,tap
1764138793438,149,0.015000,0.986000,0.063000,127,127,127,tap
1764138793459,174,0.011000,0.989000,0.055000,127,127,127,tap
1764138793480,213,0.009000,0.989000,0.058000,126,127,126,tap
1764138793501,251,0.010000,0.988000,0.060000,126,127,126,tap
1764138793522,297,0.012000,0.986000,0.062000,126,127,126,tap
1764138793543,316,0.015000,0.985000,0.066000,127,127,127,tap
1764138793564,332,0.017000,0.985000,0.064000,127,127,127,tap
1764138793585,346,0.017000,0.987000,0.055000,127,127,127,tap
1764138793604,358,0.017000,0.987000,0.049000,127,127,127,tap
1764138793624,365,0.017000,0.980000,0.045000,127,127,127,tap
1764138793645,371,0.014000,0.989000,0.040000,127,127,127,tap
1764138793665,381,0.011000,0.991000,0.041000,127,127,127,tap
1764138793685,388,0.013000,0.984000,0.049000,127,127,127,tap
1764138793706,390,0.018000,0.986000,0.044000,127,127,127,tap
1764138793727,392,0.017000,0.989000,0.038000,127,127,127,tap
1764138793748,395,0.016000,0.986000,0.037000,127,127,127,tap
1764138793769,397,0.016000,0.990000,0.037000,127,127,127,tap
1764138793790,394,0.012000,0.987000,0.044000,126,127,126,tap
1764138793811,339,0.011000,0.990000,0.050000,126,127,126,tap
1764138793832,271,0.012000,0.985000,0.057000,126,127,126,tap
1764138793852,178,0.015000,0.984000,0.062000,126,127,126,tap
1764138793873,90,0.015000,0.985000,0.056000,126,127,126,tap
1764138793893,19,0.014000,0.988000,0.052000,126,127,126,tap
1764138793913,0,0.016000,0.986000,0.050000,127,127,127,tap
1764138793934,0,0.019000,0.986000,0.044000,127,127,127,tap
1764138793954,0,0.017000,0.988000,0.041000,127,127,127,tap
1764138793975,0,0.016000,0.988000,0.044000,127,127,127,tap
1764138793996,0,0.010000,0.989000,0.048000,126,127,126,tap
1764138794016,5,0.009000,0.988000,0.051000,126,127,126,tap
1764138794038,9,0.009000,0.989000,0.052000,126,127,126,tap
1764138794058,7,0.013000,0.987000,0.059000,126,127,126,tap
1764138794079,0,0.015000,0.986000,0.061000,126,127,126,tap
1764138794100,0,0.021000,0.986000,0.057000,127,127,127,tap
1764138794120,0,0.022000,0.985000,0.052000,127,127,127,tap
1764138794140,0,0.022000,0.986000,0.045000,127,127,127,tap
1764138794161,0,0.017000,0.987000,0.042000,127,127,127,tap
1764138794181,0,0.017000,0.987000,0.042000,127,127,127,tap
1764138794201,0,0.016000,0.987000,0.047000,127,127,127,tap
1764138794222,0,0.017000,0.987000,0.048000,127,127,127,tap
1764138794242,0,0.019000,0.987000,0.047000,127,127,127,tap
1764138794263,0,0.017000,0.989000,0.047000,127,127,127,tap
1764138794285,0,0.017000,0.988000,0.049000,127,127,127,tap
1764138794304,0,0.017000,0.987000,0.048000,127,127,127,tap
1764138794325,0,0.015000,0.987000,0.049000,127,127,127,tap
1764138794345,0,0.011000,0.987000,0.051000,127,127,127,tap
1764138794366,0,0.013000,0.986000,0.048000,127,127,127,tap
1764138794386,0,0.016000,0.987000,0.045000,127,127,127,tap
1764138794406,0,0.018000,0.987000,0.043000,127,127,127,tap
1764138794427,0,0.014000,0.987000,0.040000,127,127,127,tap
1764138794447,0,0.015000,0.987000,0.036000,127,127,127,tap
1764138794468,0,0.011000,0.988000,0.033000,127,127,127,tap
1764138794488,0,0.012000,0.987000,0.034000,127,127,127,tap
1764138794508,0,0.016000,0.987000,0.040000,126,127,126,tap
1764138794529,0,0.015000,0.989000,0.044000,126,127,126,tap
1764138794551,0,0.021000,0.987000,0.049000,126,127,126,tap
1764138794571,18,-0.003000,0.998000,0.019000,126,127,127,tap
1764138794591,66,-0.156000,1,0.010000,127,127,127,tap
1764138794612,66,-0.014000,1.009000,0.003000,127,127,127,tap
1764138794633,31,-0.010000,1.008000,0,127,127,127,tap
1764138794654,0,-0.016000,1.006000,0.007000,127,127,127,tap
1764138794675,0,0.161000,0.994000,0.038000,127,127,126,tap
1764138794696,0,0.015000,0.988000,0.045000,126,127,126,tap
1764138794717,0,0.011000,0.986000,0.049000,126,127,126,tap
1764138794738,0,0.012000,0.987000,0.043000,126,127,126,tap
1764138794758,20,0.054000,0.979000,0.081000,126,127,126,tap
1764138794778,0,0.050000,0.981000,0.079000,127,127,126,tap
1764138794800,0,0.055000,0.979000,0.074000,127,127,127,tap
1764138794821,0,0.055000,0.979000,0.072000,127,127,127,tap
1764138794842,0,0.057000,0.981000,0.065000,127,127,127,tap
1764138794864,0,0.014000,0.988000,0.032000,127,127,127,tap
1764138794885,0,0.017000,0.987000,0.037000,127,127,127,tap
1764138794906,0,0.018000,0.986000,0.039000,127,127,127,tap
1764138794928,0,-0.004000,0.985000,0.042000,127,127,127,tap
1764138794949,0,-0.006000,0.985000,0.045000,127,127,127,tap
1764138794971,0,-0.006000,0.984000,0.042000,127,127,127,tap
1764138794992,0,-0.004000,0.982000,0.040000,127,127,127,tap
1764138795013,0,-0.004000,0.981000,0.040000,127,127,127,tap
1764138795033,0,0.014000,0.985000,0.041000,127,127,126,tap
1764138795052,0,0.020000,0.993000,0.026000,126,127,126,tap
1764138795073,22,0.022000,0.994000,0.022000,126,127,126,tap
1764138795093,0,-0.002000,0.991000,0.035000,127,127,126,tap
1764138795114,0,0.003000,0.992000,0.022000,127,127,127,tap
1764138795135,0,-0.003000,0.984000,0.037000,127,127,127,tap
1764138795156,0,-0.003000,0.983000,0.041000,127,127,126,tap
1764138795177,0,0.019000,0.988000,0.029000,126,127,126,tap
1764138795196,0,0.017000,0.990000,0.033000,126,127,126,tap
1764138795218,0,0.004000,0.988000,0.036000,126,127,126,tap
1764138795238,5,0.010000,0.986000,0.036000,126,127,126,tap
1764138795259,0,0.004000,0.987000,0.036000,126,127,127,tap
1764138795279,1,0.008000,0.988000,0.039000,127,127,127,tap
1764138795301,0,0.009000,0.986000,0.041000,127,127,127,tap
1764138795321,0,0.023000,0.985000,0.037000,127,127,127,tap
1764138795342,0,0.021000,0.990000,0.032000,126,127,126,tap
1764138795361,0,0.021000,0.990000,0.032000,126,127,126,tap
1764138795382,0,0.016000,0.984000,0.067000,126,127,126,tap
1764138795403,25,0.018000,0.986000,0.079000,126,127,126,tap
1764138795425,20,0.014000,0.985000,0.075000,127,127,126,tap
1764138795446,0,0.015000,0.984000,0.078000,127,127,127,tap
1764138795468,0,0.015000,0.983000,0.062000,127,127,127,tap
1764138795488,0,0.017000,0.985000,0.039000,127,127,127,tap
1764138795509,0,0.014000,0.984000,0.027000,126,127,127,tap
1764138795529,0,0.014000,0.990000,0.035000,126,127,127,tap
1764138795549,0,0.011000,0.989000,0.037000,126,127,126,tap
1764138795569,0,0.008000,0.989000,0.037000,126,127,126,tap
1764138795590,0,0.006000,0.990000,0.040000,126,127,127,tap
1764138795611,0,0.010000,0.987000,0.037000,127,127,127,tap
1764138795631,0,0.013000,0.985000,0.038000,127,127,127,tap
1764138795651,0,0.018000,0.987000,0.027000,127,127,127,tap
1764138795672,0,0.016000,0.989000,0.028000,127,127,127,tap
1764138795693,0,0.017000,0.988000,0.028000,126,127,127,tap
1764138795713,0,0.018000,0.986000,0.031000,126,127,127,tap
1764138795734,0,0.018000,0.989000,0.030000,126,127,127,tap
1764138795755,0,0.018000,0.987000,0.041000,126,127,126,tap
1764138795774,0,0.017000,0.986000,0.044000,126,127,126,tap
1764138795795,0,0.017000,0.986000,0.045000,126,127,127,tap
1764138795816,0,0.015000,0.987000,0.041000,127,127,127,tap
1764138795836,0,0.017000,0.987000,0.038000,127,127,127,tap
1764138795857,0,0.025000,0.987000,0.041000,127,127,127,tap
1764138795878,0,0.036000,0.990000,0.040000,126,127,126,tap
1764138795900,0,0.037000,0.989000,0.042000,126,127,126,tap
1764138795920,0,0.036000,0.988000,0.043000,126,127,126,tap
1764138795940,0,0.036000,0.988000,0.044000,126,127,126,tap
1764138795961,0,0.030000,0.991000,0.029000,126,127,126,tap
1764138795981,0,0.017000,0.990000,0.030000,126,127,126,tap
1764138796002,4,0.016000,0.989000,0.031000,126,127,126,tap
1764138796022,0,0.018000,0.988000,0.030000,126,127,126,tap
1764138796042,0,0.018000,0.988000,0.029000,126,127,127,tap
1764138796063,0,0.019000,0.985000,0.034000,126,127,127,tap
1764138796083,0,0.020000,0.982000,0.029000,126,127,127,tap
1764138796104,0,0.019000,0.984000,0.027000,126,127,127,tap
1764138796124,0,0.015000,0.986000,0.031000,126,127,126,tap
1764138796144,0,0.016000,0.985000,0.031000,127,127,127,tap
1764138796166,0,0.018000,0.985000,0.029000,127,127,127,tap
1764138796186,0,0.017000,0.987000,0.032000,126,127,127,tap
1764138796208,0,0.017000,0.986000,0.035000,126,127,127,tap
1764138796229,0,0.018000,0.989000,0.027000,126,127,127,tap
1764138796249,22,0.013000,0.989000,0.036000,126,127,127,tap
1764138796270,0,0.010000,0.989000,0.035000,126,127,127,tap
1764138796290,0,0.008000,0.992000,0.028000,127,127,127,tap
1764138796311,0,0.010000,0.992000,0.028000,127,127,127,tap
1764138796331,0,0.017000,0.989000,0.023000,127,127,127,tap
1764138796352,0,0.021000,0.990000,0.026000,127,127,127,tap
1764138796375,0,0.020000,0.988000,0.029000,127,127,127,tap
1764138796396,0,0.018000,0.990000,0.024000,127,127,127,tap
1764138796417,0,0.018000,0.986000,0.033000,127,127,127,tap
1764138796438,17,0.004000,0.981000,0.012000,127,127,127,tap
1764138796458,0,0.019000,0.981000,0.017000,127,127,127,tap
1764138796479,0,0.020000,0.980000,0.018000,127,127,127,tap
1764138796499,0,0.022000,0.977000,0.020000,127,127,127,tap
1764138796520,0,0.024000,0.979000,0.011000,127,127,127,tap
1764138796541,0,0.021000,0.990000,0.017000,126,127,126,tap
1764138796561,0,0.024000,0.993000,0.007000,127,127,127,tap
1764138796581,13,0.021000,0.993000,0.005000,126,127,127,tap
1764138796602,51,0.027000,0.992000,0.003000,126,127,127,tap
1764138796622,10,0.026000,0.995000,0.005000,127,127,127,tap
1764138796643,0,0.024000,0.991000,0.013000,127,127,127,tap
1764138796664,0,0.021000,0.989000,0.022000,127,127,127,tap
1764138796684,0,0.024000,0.987000,0.026000,127,127,127,tap
1764138796705,0,0.021000,0.993000,0.007000,126,127,127,tap
1764138796725,7,0.018000,0.993000,0.008000,126,127,127,tap
1764138796745,69,0.024000,0.990000,0.014000,126,127,127,tap
1764138796766,15,0.024000,0.990000,0.013000,126,127,126,tap
1764138796787,0,0.012000,0.992000,0.015000,126,127,127,tap
1764138796807,0,0.011000,0.985000,0.040000,127,127,127,tap
1764138796828,0,0.009000,0.986000,0.033000,127,127,127,tap
1764138796849,0,0.008000,0.987000,0.031000,127,127,127,tap
1764138796870,0,0.018000,0.988000,0.031000,127,127,126,tap
1764138796891,0,0.020000,0.986000,0.035000,127,127,126,tap
1764138796912,15,0.022000,0.989000,0.041000,127,127,126,tap
1764138796933,0,0.019000,0.990000,0.041000,126,127,126,tap
1764138796954,0,0.018000,0.990000,0.046000,127,127,127,tap
1764138796975,0,0.020000,0.987000,0.047000,127,127,127,tap
1764138796995,0,0.022000,0.985000,0.043000,127,127,127,tap
1764138797016,0,0.021000,0.993000,0.013000,127,127,127,tap
1764138797036,35,0.032000,0.989000,0.007000,127,127,127,tap
1764138797056,224,0.042000,0.993000,-0.007000,127,127,127,tap
1764138797078,115,0.039000,0.992000,-0.015000,127,127,127,tap
1764138797098,0,0.035000,0.991000,-0.005000,126,127,127,tap
1764138797119,0,0.038000,0.985000,0.001000,126,127,126,tap
1764138797139,0,0.029000,0.985000,0.007000,126,127,126,tap
1764138797160,0,0.017000,0.982000,0.027000,126,127,126,tap
1764138797180,0,0.020000,0.984000,0.042000,126,127,126,tap
1764138797200,19,0.019000,0.983000,0.057000,126,127,126,tap
1764138797221,0,0.017000,0.982000,0.057000,126,127,126,tap
1764138797241,0,0.025000,0.983000,0.061000,127,127,127,tap
1764138797262,0,0.026000,0.987000,0.048000,127,127,127,tap
1764138797282,0,0.029000,0.989000,0.020000,127,127,127,tap
1764138797302,0,0.038000,0.991000,0.020000,127,127,127,tap
1764138797323,0,0.034000,0.993000,0.005000,127,127,127,tap
1764138797344,16,0.043000,0.988000,0.006000,127,127,126,tap
1764138797364,61,0.040000,0.987000,0.019000,127,127,126,tap
1764138797385,0,0.032000,0.987000,0.023000,127,127,126,tap
1764138797405,0,0.026000,0.986000,0.022000,127,127,127,tap
1764138797426,0,0.022000,0.984000,0.035000,127,127,127,tap
1764138797446,0,0.019000,0.985000,0.033000,127,127,127,tap
1764138797467,0,0.026000,0.992000,0.005000,127,127,126,tap
1764138797487,0,0.020000,0.992000,0.024000,127,127,126,tap
1764138797508,13,0.026000,0.991000,0.025000,127,127,127,tap
1764138797528,0,0.029000,0.992000,0.017000,127,127,127,tap
1764138797548,0,0.023000,0.992000,0.020000,127,127,127,tap
1764138797569,0,0.028000,0.984000,0.019000,127,127,127,tap
1764138797590,0,0.023000,0.983000,0.014000,127,127,126,tap
1764138797611,0,0.019000,0.985000,0.019000,126,127,126,tap
1764138797632,0,0.028000,0.986000,0.029000,126,127,126,tap
1764138797651,0,0.021000,0.986000,0.037000,126,127,126,tap
1764138797672,20,0.031000,0.986000,0.036000,126,127,126,tap
1764138797692,51,0.019000,0.990000,0.035000,126,127,126,tap
1764138797713,3,0.019000,0.990000,0.032000,127,127,127,tap
1764138797733,0,0.011000,0.989000,0.022000,127,127,127,tap
1764138797753,0,0.020000,0.987000,0.009000,127,127,127,tap
1764138797774,0,0.009000,0.991000,0.009000,126,127,126,tap
1764138797794,0,0.023000,0.990000,0.013000,126,127,126,tap
1764138797816,0,0.026000,0.984000,0.015000,127,127,127,tap
1764138797836,0,0.013000,0.984000,0.020000,127,127,126,tap
1764138797857,0,0.012000,0.983000,0.027000,127,127,126,tap
1764138797878,0,0.010000,0.981000,0.028000,127,127,127,tap
1764138797899,0,0.009000,0.982000,0.029000,127,127,127,tap
1764138797920,0,0.004000,0.985000,0.035000,127,127,126,tap
1764138797939,0,0.018000,0.989000,0.021000,126,127,127,tap
1764138797960,173,0.021000,0.988000,0.020000,126,127,127,tap
1764138797980,151,0.024000,0.990000,0.009000,127,127,127,tap
1764138798001,0,0.017000,0.990000,-0.001000,126,127,127,tap
1764138798021,0,0.022000,0.989000,-0.005000,126,127,127,tap
1764138798042,0,0.014000,0.986000,-0.003000,126,127,126,tap
1764138798062,0,0.016000,0.988000,0.001000,126,127,126,tap
1764138798083,0,0.019000,0.991000,0.009000,126,127,126,tap
1764138798105,0,0.018000,0.990000,0.016000,127,127,127,tap
1764138798125,0,0.021000,0.990000,0.010000,127,127,127,tap
1764138798147,0,0.023000,0.988000,0.016000,127,127,127,tap
1764138798167,0,0.018000,0.988000,0.020000,126,127,127,tap
1764138798188,0,0.022000,0.985000,0.020000,126,127,127,tap
1764138798208,0,0.027000,0.984000,0.018000,126,127,126,tap
1764138798229,0,0.021000,0.987000,0.022000,126,127,126,tap
1764138798249,0,0.023000,0.987000,0.033000,126,127,126,tap
1764138798269,0,0.021000,0.984000,0.033000,127,127,127,tap
1764138798288,0,0.016000,0.986000,0.029000,126,127,127,tap
1764138798309,0,0.018000,0.985000,0.031000,126,127,127,tap
1764138798329,0,0.017000,0.986000,0.021000,127,127,127,tap
1764138798350,0,0.019000,0.989000,0.020000,126,127,126,tap
1764138798372,0,0.017000,0.989000,0.022000,127,127,126,tap
1764138798392,0,0.017000,0.990000,0.020000,127,127,127,tap
1764138798413,0,0.014000,0.987000,0.023000,127,127,127,tap
1764138798433,0,0.015000,0.987000,0.023000,126,127,126,tap
1764138798454,0,0.019000,0.985000,0.025000,126,127,126,tap
1764138798474,0,0.024000,0.984000,0.027000,126,127,126,tap
1764138798494,0,0.025000,0.985000,0.028000,126,127,126,tap
1764138798515,0,0.028000,0.988000,0.021000,126,127,126,tap
1764138798535,0,0.028000,0.986000,0.024000,126,127,126,tap
1764138798556,0,0.021000,0.986000,0.022000,126,127,126,tap
1764138798576,0,0.019000,0.986000,0.024000,126,127,126,tap
1764138798597,0,0.019000,0.985000,0.027000,126,127,126,tap
1764138798618,0,0.020000,0.986000,0.026000,126,127,127,tap
1764138798638,0,0.019000,0.987000,0.024000,126,127,127,tap
1764138798659,0,0.019000,0.987000,0.023000,127,127,127,tap
1764138798679,0,0.022000,0.986000,0.019000,127,127,127,tap
1764138798700,0,0.022000,0.987000,0.016000,127,127,127,tap
1764138798720,0,0.021000,0.988000,0.017000,127,127,127,tap
1764138798740,0,0.020000,0.987000,0.019000,127,127,127,tap
1764138798761,0,0.016000,0.988000,0.015000,126,127,126,tap
1764138798781,1,0.012000,0.988000,0.018000,126,127,126,tap
1764138805442,29,-0.110000,-0.019000,1.040000,126,127,126,rest_head
1764138805464,28,-0.113000,-0.023000,1.041000,126,127,126,rest_head
1764138805486,27,-0.113000,-0.024000,1.040000,127,127,127,rest_head
1764138805508,21,-0.113000,-0.025000,1.039000,127,127,127,rest_head
1764138805527,22,-0.110000,-0.023000,1.041000,127,127,127,rest_head
1764138805548,26,-0.109000,-0.021000,1.042000,127,127,126,rest_head
1764138805569,27,-0.110000,-0.022000,1.042000,127,127,126,rest_head
1764138805589,23,-0.109000,-0.021000,1.042000,127,127,126,rest_head
1764138805610,19,-0.110000,-0.020000,1.042000,127,127,126,rest_head
1764138805631,19,-0.111000,-0.021000,1.042000,127,127,126,rest_head
1764138805652,21,-0.110000,-0.019000,1.042000,127,127,127,rest_head
1764138805672,23,-0.109000,-0.018000,1.041000,127,127,127,rest_head
1764138805694,28,-0.110000,-0.018000,1.043000,127,127,127,rest_head
1764138805717,43,-0.108000,-0.016000,1.043000,127,127,127,rest_head
1764138805737,65,-0.107000,-0.016000,1.044000,126,127,126,rest_head
1764138805757,92,-0.106000,-0.017000,1.044000,126,127,127,rest_head
1764138805778,160,-0.106000,-0.018000,1.044000,126,127,126,rest_head
1764138805798,196,-0.106000,-0.019000,1.044000,126,127,126,rest_head
1764138805819,219,-0.109000,-0.022000,1.043000,126,127,126,rest_head
1764138805839,247,-0.110000,-0.024000,1.042000,126,127,126,rest_head
1764138805859,267,-0.112000,-0.024000,1.043000,126,127,126,rest_head
1764138805880,284,-0.112000,-0.023000,1.042000,127,127,126,rest_head
1764138805901,305,-0.111000,-0.021000,1.043000,127,127,126,rest_head
1764138805922,318,-0.110000,-0.021000,1.044000,127,127,126,rest_head
1764138805944,329,-0.109000,-0.020000,1.044000,127,127,126,rest_head
1764138805967,337,-0.106000,-0.018000,1.043000,127,127,126,rest_head
1764138805988,349,-0.106000,-0.018000,1.043000,127,127,126,rest_head
1764138806009,356,-0.103000,-0.016000,1.043000,126,127,126,rest_head
1764138806029,360,-0.104000,-0.016000,1.042000,126,127,126,rest_head
1764138806050,363,-0.106000,-0.016000,1.042000,126,127,126,rest_head
1764138806070,364,-0.106000,-0.017000,1.042000,126,127,126,rest_head
1764138806090,367,-0.108000,-0.019000,1.042000,126,127,126,rest_head
1764138806111,367,-0.110000,-0.021000,1.042000,126,127,126,rest_head
1764138806133,368,-0.111000,-0.021000,1.042000,126,127,126,rest_head
1764138806154,368,-0.111000,-0.021000,1.042000,126,127,126,rest_head
1764138806174,366,-0.111000,-0.021000,1.042000,126,127,127,rest_head
1764138806195,361,-0.110000,-0.020000,1.041000,126,127,126,rest_head
1764138806215,359,-0.109000,-0.019000,1.041000,126,127,126,rest_head
1764138806235,355,-0.108000,-0.019000,1.041000,126,127,126,rest_head
1764138806256,352,-0.107000,-0.018000,1.042000,126,127,126,rest_head
1764138806276,347,-0.108000,-0.019000,1.043000,126,127,126,rest_head
1764138806297,342,-0.110000,-0.019000,1.042000,126,127,127,rest_head
1764138806318,337,-0.110000,-0.019000,1.042000,126,127,127,rest_head
1764138806338,332,-0.110000,-0.019000,1.042000,126,127,127,rest_head
1764138806358,330,-0.111000,-0.020000,1.042000,126,127,127,rest_head
1764138806378,330,-0.110000,-0.019000,1.041000,126,127,127,rest_head
1764138806399,328,-0.109000,-0.019000,1.042000,126,127,127,rest_head
1764138806421,328,-0.108000,-0.019000,1.042000,126,127,127,rest_head
1764138806442,326,-0.107000,-0.020000,1.042000,126,127,126,rest_head
1764138806462,317,-0.108000,-0.019000,1.041000,126,127,126,rest_head
1764138806482,315,-0.107000,-0.020000,1.041000,126,127,126,rest_head
1764138806502,312,-0.107000,-0.020000,1.041000,126,127,126,rest_head
1764138806523,310,-0.108000,-0.020000,1.041000,126,127,126,rest_head
1764138806544,307,-0.108000,-0.020000,1.043000,126,127,126,rest_head
1764138806565,306,-0.109000,-0.020000,1.042000,126,127,126,rest_head
1764138806587,307,-0.109000,-0.020000,1.044000,126,127,126,rest_head
1764138806608,307,-0.110000,-0.020000,1.043000,126,127,126,rest_head
1764138806630,305,-0.109000,-0.020000,1.042000,126,127,126,rest_head
1764138806650,304,-0.110000,-0.021000,1.043000,126,127,126,rest_head
1764138806670,299,-0.109000,-0.021000,1.043000,126,127,126,rest_head
1764138806691,297,-0.109000,-0.021000,1.043000,126,127,126,rest_head
1764138806710,296,-0.109000,-0.021000,1.044000,126,127,126,rest_head
1764138806731,294,-0.108000,-0.020000,1.045000,126,127,126,rest_head
1764138806752,291,-0.110000,-0.019000,1.044000,126,127,126,rest_head
1764138806773,288,-0.109000,-0.019000,1.043000,126,127,126,rest_head
1764138806793,286,-0.109000,-0.019000,1.042000,126,127,126,rest_head
1764138806814,286,-0.109000,-0.020000,1.042000,126,127,126,rest_head
1764138806834,284,-0.109000,-0.021000,1.041000,126,127,126,rest_head
1764138806855,282,-0.108000,-0.021000,1.042000,126,127,126,rest_head
1764138806876,280,-0.108000,-0.020000,1.042000,126,127,126,rest_head
1764138806896,279,-0.107000,-0.019000,1.042000,126,127,126,rest_head
1764138806917,278,-0.109000,-0.018000,1.042000,126,127,127,rest_head
1764138806937,276,-0.109000,-0.017000,1.042000,126,127,127,rest_head
1764138806957,276,-0.109000,-0.018000,1.041000,126,127,127,rest_head
1764138806978,276,-0.109000,-0.018000,1.042000,126,127,127,rest_head
1764138806998,276,-0.111000,-0.018000,1.042000,126,127,126,rest_head
1764138807019,275,-0.108000,-0.019000,1.041000,126,127,126,rest_head
1764138807041,274,-0.107000,-0.019000,1.041000,126,127,126,rest_head
1764138807062,272,-0.107000,-0.019000,1.040000,126,127,126,rest_head
1764138807083,269,-0.107000,-0.019000,1.040000,126,127,126,rest_head
1764138807105,268,-0.108000,-0.018000,1.040000,126,127,127,rest_head
1764138807125,266,-0.108000,-0.018000,1.040000,126,127,127,rest_head
1764138807146,263,-0.109000,-0.018000,1.041000,126,127,127,rest_head
1764138807167,262,-0.109000,-0.018000,1.041000,126,127,127,rest_head
1764138807187,261,-0.108000,-0.018000,1.042000,126,127,126,rest_head
1764138807207,259,-0.107000,-0.017000,1.042000,126,127,126,rest_head
1764138807228,258,-0.107000,-0.018000,1.043000,126,127,126,rest_head
1764138807248,258,-0.106000,-0.019000,1.043000,126,127,126,rest_head
1764138807270,257,-0.107000,-0.019000,1.042000,126,127,126,rest_head
1764138807292,255,-0.108000,-0.018000,1.044000,126,127,127,rest_head
1764138807319,255,-0.109000,-0.018000,1.043000,126,127,127,rest_head
1764138807340,256,-0.109000,-0.018000,1.045000,126,127,126,rest_head
1764138807360,254,-0.109000,-0.019000,1.045000,126,127,126,rest_head
1764138807384,251,-0.108000,-0.019000,1.045000,126,127,126,rest_head
1764138807405,248,-0.108000,-0.019000,1.043000,126,127,126,rest_head
1764138807427,245,-0.108000,-0.020000,1.043000,126,127,126,rest_head
1764138807446,242,-0.108000,-0.019000,1.043000,126,127,126,rest_head
1764138807467,235,-0.108000,-0.019000,1.042000,126,127,126,rest_head
1764138807489,231,-0.107000,-0.019000,1.041000,126,127,126,rest_head
1764138807510,231,-0.107000,-0.019000,1.042000,126,127,126,rest_head
1764138807531,217,-0.106000,-0.019000,1.041000,126,127,126,rest_head
1764138807552,215,-0.107000,-0.018000,1.042000,126,127,126,rest_head
1764138807572,212,-0.108000,-0.019000,1.043000,126,127,127,rest_head
1764138807592,213,-0.109000,-0.018000,1.043000,126,127,126,rest_head
1764138807613,214,-0.110000,-0.019000,1.043000,126,127,127,rest_head
1764138807635,215,-0.109000,-0.020000,1.042000,126,127,126,rest_head
1764138807655,216,-0.109000,-0.020000,1.042000,126,127,126,rest_head
1764138807676,216,-0.108000,-0.019000,1.042000,126,127,126,rest_head
1764138807696,216,-0.108000,-0.019000,1.041000,126,127,126,rest_head
1764138807717,216,-0.107000,-0.019000,1.041000,126,127,126,rest_head
1764138807736,213,-0.107000,-0.018000,1.042000,126,127,126,rest_head
1764138807756,210,-0.107000,-0.018000,1.042000,126,127,126,rest_head
1764138807776,207,-0.107000,-0.018000,1.042000,126,127,126,rest_head
1764138807797,207,-0.107000,-0.017000,1.043000,126,127,126,rest_head
1764138807817,205,-0.108000,-0.018000,1.042000,126,127,126,rest_head
1764138807839,204,-0.108000,-0.019000,1.043000,126,127,126,rest_head
1764138807861,200,-0.108000,-0.020000,1.042000,126,127,126,rest_head
1764138807883,196,-0.107000,-0.021000,1.042000,126,127,126,rest_head
1764138807904,190,-0.108000,-0.020000,1.043000,126,127,126,rest_head
1764138807925,186,-0.108000,-0.019000,1.041000,126,127,127,rest_head
1764138807945,173,-0.107000,-0.019000,1.040000,126,127,127,rest_head
1764138807965,165,-0.107000,-0.018000,1.041000,126,127,127,rest_head
1764138807986,155,-0.108000,-0.018000,1.040000,126,127,127,rest_head
1764138808006,146,-0.108000,-0.018000,1.040000,126,127,127,rest_head
1764138808027,134,-0.108000,-0.018000,1.042000,126,127,126,rest_head
1764138808048,123,-0.108000,-0.019000,1.042000,126,127,126,rest_head
1764138808070,110,-0.108000,-0.019000,1.042000,126,127,126,rest_head
1764138808092,105,-0.107000,-0.019000,1.042000,126,127,126,rest_head
1764138808113,102,-0.108000,-0.018000,1.042000,126,127,127,rest_head
1764138808133,101,-0.109000,-0.019000,1.042000,126,127,127,rest_head
1764138808153,99,-0.109000,-0.019000,1.041000,126,127,126,rest_head
1764138808174,99,-0.109000,-0.018000,1.041000,126,127,126,rest_head
1764138808195,101,-0.109000,-0.019000,1.043000,126,127,127,rest_head
1764138808215,102,-0.109000,-0.019000,1.043000,126,127,127,rest_head
1764138808235,102,-0.107000,-0.019000,1.043000,126,127,127,rest_head
1764138808256,104,-0.107000,-0.019000,1.043000,126,127,127,rest_head
1764138808278,102,-0.107000,-0.019000,1.042000,126,127,127,rest_head
1764138808300,101,-0.107000,-0.019000,1.041000,126,127,127,rest_head
1764138808321,102,-0.107000,-0.019000,1.042000,126,127,127,rest_head
1764138808342,103,-0.107000,-0.020000,1.042000,126,127,127,rest_head
1764138808361,104,-0.108000,-0.019000,1.042000,126,127,126,rest_head
1764138808384,102,-0.108000,-0.019000,1.042000,126,127,126,rest_head
1764138808405,100,-0.108000,-0.019000,1.042000,126,127,126,rest_head
1764138808425,94,-0.109000,-0.020000,1.042000,126,127,126,rest_head
1764138808447,92,-0.109000,-0.020000,1.042000,126,127,126,rest_head
1764138808470,90,-0.109000,-0.020000,1.042000,126,127,126,rest_head
1764138808491,92,-0.110000,-0.019000,1.042000,126,127,126,rest_head
1764138808511,94,-0.110000,-0.019000,1.042000,126,127,126,rest_head
1764138808532,95,-0.110000,-0.019000,1.042000,126,127,126,rest_head
1764138808553,95,-0.109000,-0.018000,1.042000,126,127,126,rest_head
1764138808573,96,-0.110000,-0.018000,1.042000,126,127,126,rest_head
1764138808594,97,-0.109000,-0.017000,1.042000,126,127,126,rest_head
1764138808614,98,-0.108000,-0.017000,1.042000,126,127,126,rest_head
1764138808634,102,-0.108000,-0.018000,1.043000,126,127,126,rest_head
1764138808655,101,-0.107000,-0.018000,1.043000,126,127,126,rest_head
1764138808676,104,-0.108000,-0.018000,1.043000,126,127,126,rest_head
1764138808696,106,-0.108000,-0.018000,1.042000,126,127,126,rest_head
1764138808718,109,-0.107000,-0.018000,1.042000,126,127,126,rest_head
1764138808739,110,-0.107000,-0.018000,1.041000,126,127,126,rest_head
1764138808760,112,-0.107000,-0.019000,1.040000,126,127,126,rest_head
1764138808781,113,-0.106000,-0.020000,1.042000,126,127,126,rest_head
1764138808800,116,-0.106000,-0.020000,1.043000,126,127,126,rest_head
1764138808821,116,-0.107000,-0.021000,1.044000,126,127,126,rest_head
1764138808841,116,-0.107000,-0.021000,1.044000,126,127,126,rest_head
1764138808862,116,-0.107000,-0.021000,1.044000,126,127,126,rest_head
1764138808881,113,-0.107000,-0.019000,1.042000,126,127,127,rest_head
1764138808902,112,-0.106000,-0.019000,1.042000,126,127,126,rest_head
1764138808923,109,-0.105000,-0.019000,1.042000,126,127,126,rest_head
1764138808942,109,-0.106000,-0.019000,1.042000,126,127,126,rest_head
1764138808963,109,-0.107000,-0.020000,1.043000,126,127,126,rest_head
1764138808984,111,-0.108000,-0.020000,1.043000,126,127,126,rest_head
1764138809005,111,-0.108000,-0.020000,1.043000,126,127,126,rest_head
1764138809026,111,-0.109000,-0.021000,1.042000,126,127,126,rest_head
1764138809047,112,-0.109000,-0.021000,1.043000,126,127,126,rest_head
1764138809067,114,-0.109000,-0.021000,1.043000,126,127,126,rest_head
1764138809088,115,-0.109000,-0.020000,1.043000,126,127,126,rest_head
1764138809108,117,-0.109000,-0.021000,1.042000,126,127,127,rest_head
1764138809128,119,-0.108000,-0.021000,1.042000,126,127,127,rest_head
1764138809149,121,-0.108000,-0.019000,1.041000,126,127,127,rest_head
1764138809169,122,-0.108000,-0.020000,1.041000,126,127,127,rest_head
1764138809190,124,-0.109000,-0.020000,1.042000,126,127,127,rest_head
1764138809212,124,-0.109000,-0.018000,1.042000,126,127,127,rest_head
1764138809233,126,-0.109000,-0.018000,1.042000,126,127,126,rest_head
1764138809254,122,-0.109000,-0.018000,1.042000,126,127,126,rest_head
1764138809275,127,-0.107000,-0.019000,1.042000,126,127,126,rest_head
1764138809295,127,-0.107000,-0.018000,1.042000,126,127,126,rest_head
