timestamp_ms,pressure,ax,ay,az,gx,gy,gz,label
1764136975651,0,-0.109000,-0.021000,1.039000,126,127,126,tap
1764136975671,0,-0.109000,-0.021000,1.036000,126,127,126,tap
1764136975692,0,-0.109000,-0.020000,1.033000,126,127,126,tap
1764136975712,0,-0.107000,-0.023000,1.033000,126,127,126,tap
1764136975733,0,-0.108000,-0.024000,1.037000,127,127,126,tap
1764136975753,0,-0.108000,-0.022000,1.039000,126,127,126,tap
1764136975773,0,-0.110000,-0.021000,1.042000,126,127,126,tap
1764136975794,0,-0.113000,-0.020000,1.041000,126,127,126,tap
1764136975815,0,-0.114000,-0.018000,1.042000,126,127,127,tap
1764136975837,0,-0.114000,-0.018000,1.043000,126,127,127,tap
1764136975857,0,-0.112000,-0.021000,1.043000,126,127,127,tap
1764136975877,0,-0.107000,-0.023000,1.043000,126,127,127,tap
1764136975898,0,-0.104000,-0.025000,1.043000,126,127,127,tap
1764136975918,0,-0.102000,-0.026000,1.044000,126,127,127,tap
1764136975939,0,-0.101000,-0.026000,1.044000,126,127,127,tap
1764136975960,0,-0.103000,-0.025000,1.044000,126,127,127,tap
1764136975981,0,-0.109000,-0.021000,1.041000,126,127,127,tap
1764136976001,0,-0.112000,-0.020000,1.037000,126,127,127,tap
1764136976023,0,-0.114000,-0.018000,1.039000,126,127,127,tap
1764136976045,0,-0.115000,-0.018000,1.039000,126,127,127,tap
1764136976066,0,-0.113000,-0.019000,1.041000,126,127,127,tap
1764136976086,0,-0.110000,-0.020000,1.042000,126,127,127,tap
1764136976107,0,-0.107000,-0.021000,1.044000,126,127,127,tap
1764136976127,0,-0.105000,-0.023000,1.048000,126,127,127,tap
1764136976148,0,-0.104000,-0.024000,1.049000,126,127,127,tap
1764136976168,0,-0.104000,-0.024000,1.047000,126,127,127,tap
1764136976189,0,-0.105000,-0.023000,1.044000,126,127,127,tap
1764136976209,0,-0.106000,-0.021000,1.040000,126,127,127,tap
1764136976230,0,-0.109000,-0.022000,1.040000,126,127,127,tap
1764136976251,0,-0.109000,-0.020000,1.042000,126,127,127,tap
1764136976272,0,-0.110000,-0.019000,1.042000,126,127,127,tap
1764136976292,0,-0.110000,-0.021000,1.044000,126,127,127,tap
1764136976312,0,-0.108000,-0.022000,1.043000,126,127,127,tap
1764136976333,0,-0.107000,-0.021000,1.045000,126,127,127,tap
1764136976353,0,-0.108000,-0.022000,1.045000,126,127,127,tap
1764136976373,0,-0.107000,-0.023000,1.044000,126,127,127,tap
1764136976394,0,-0.108000,-0.023000,1.045000,126,127,127,tap
1764136976414,0,-0.111000,-0.022000,1.046000,126,127,127,tap
1764136976434,0,-0.111000,-0.023000,1.045000,126,127,127,tap
1764136976455,0,-0.113000,-0.022000,1.044000,126,127,126,tap
1764136976475,0,-0.113000,-0.022000,1.044000,126,127,126,tap
1764136976496,0,-0.112000,-0.020000,1.043000,126,127,126,tap
1764136976518,0,-0.110000,-0.021000,1.043000,126,127,126,tap
1764136976539,0,-0.109000,-0.023000,1.043000,126,127,126,tap
1764136976559,0,-0.107000,-0.022000,1.046000,126,127,126,tap
1764136976579,24,-0.104000,-0.020000,1.045000,126,127,126,tap
1764136976599,24,-0.104000,-0.022000,1.047000,126,127,126,tap
1764136976619,10,-0.105000,-0.022000,1.043000,126,127,126,tap
1764136976640,0,-0.105000,-0.022000,1.044000,126,127,126,tap
1764136976660,0,-0.106000,-0.021000,1.042000,126,127,126,tap
1764136976681,0,-0.110000,-0.023000,1.044000,126,127,126,tap
1764136976702,0,-0.111000,-0.021000,1.045000,126,127,127,tap
1764136976722,0,-0.111000,-0.019000,1.045000,126,127,127,tap
1764136976744,0,-0.111000,-0.020000,1.044000,126,127,127,tap
1764136976765,0,-0.109000,-0.022000,1.043000,126,127,127,tap
1764136976786,0,-0.109000,-0.023000,1.043000,126,127,127,tap
1764136976806,0,-0.108000,-0.022000,1.044000,126,127,127,tap
1764136976827,0,-0.107000,-0.024000,1.044000,126,127,126,tap
1764136976847,0,-0.108000,-0.025000,1.043000,126,127,126,tap
1764136976869,39,-0.110000,-0.024000,1.032000,126,127,126,tap
1764136976889,13,-0.110000,-0.023000,1.034000,126,127,126,tap
1764136976910,0,-0.111000,-0.022000,1.035000,126,127,126,tap
1764136976931,0,-0.113000,-0.022000,1.034000,126,127,127,tap
1764136976951,0,-0.109000,-0.021000,1.044000,126,127,127,tap
1764136976971,0,-0.107000,-0.021000,1.044000,126,127,127,tap
1764136976994,0,-0.107000,-0.023000,1.044000,126,127,127,tap
1764136977015,0,-0.105000,-0.024000,1.043000,126,127,127,tap
1764136977035,0,-0.104000,-0.024000,1.043000,126,127,127,tap
1764136977056,0,-0.106000,-0.024000,1.045000,126,127,127,tap
1764136977076,0,-0.106000,-0.024000,1.045000,126,127,127,tap
1764136977097,60,-0.105000,-0.024000,1.044000,127,127,127,tap
1764136977117,29,-0.106000,-0.021000,1.043000,126,127,127,tap
1764136977138,3,-0.108000,-0.021000,1.043000,126,127,127,tap
1764136977158,0,-0.109000,-0.021000,1.041000,126,127,127,tap
1764136977179,0,-0.110000,-0.022000,1.040000,126,127,127,tap
1764136977200,0,-0.109000,-0.023000,1.044000,126,127,127,tap
1764136977221,0,-0.109000,-0.024000,1.042000,126,127,127,tap
1764136977242,0,-0.108000,-0.025000,1.043000,126,127,127,tap
1764136977263,0,-0.107000,-0.024000,1.044000,126,127,127,tap
1764136977283,0,-0.108000,-0.024000,1.045000,126,127,127,tap
1764136977303,0,-0.108000,-0.024000,1.043000,126,127,127,tap
1764136977323,0,-0.109000,-0.023000,1.044000,126,127,127,tap
1764136977343,0,-0.109000,-0.021000,1.045000,126,127,127,tap
1764136977363,0,-0.109000,-0.022000,1.046000,126,127,127,tap
1764136977383,5,-0.107000,-0.023000,1.045000,126,127,127,tap
1764136977403,25,-0.104000,-0.025000,1.045000,126,127,127,tap
1764136977423,42,-0.110000,-0.028000,1.045000,127,127,127,tap
1764136977443,0,-0.110000,-0.028000,1.045000,127,127,127,tap
1764136977463,0,-0.120000,-0.022000,1.045000,127,127,127,tap
1764136977484,0,-0.123000,-0.020000,1.046000,126,127,127,tap
1764136977506,0,-0.127000,-0.019000,1.044000,126,127,127,tap
1764136977527,0,-0.119000,-0.016000,1.035000,126,127,127,tap
1764136977548,0,-0.117000,-0.016000,1.046000,126,127,127,tap
1764136977568,0,-0.110000,-0.019000,1.042000,126,127,127,tap
1764136977589,0,-0.105000,-0.020000,1.038000,126,127,127,tap
1764136977609,0,-0.102000,-0.022000,1.043000,126,127,127,tap
1764136977630,0,-0.103000,-0.022000,1.049000,126,127,127,tap
1764136977650,0,-0.100000,-0.023000,1.040000,126,127,127,tap
1764136977671,0,-0.075000,-0.021000,1.039000,127,127,127,tap
1764136977691,125,-0.075000,-0.017000,1.035000,127,127,127,tap
1764136977712,68,-0.078000,-0.016000,1.046000,126,127,127,tap
1764136977733,35,-0.081000,-0.015000,1.038000,126,127,127,tap
1764136977754,0,-0.083000,-0.016000,1.039000,126,127,127,tap
1764136977775,0,-0.114000,-0.019000,1.044000,126,127,126,tap
1764136977795,0,-0.113000,-0.021000,1.047000,126,127,127,tap
1764136977816,0,-0.110000,-0.023000,1.040000,126,127,126,tap
1764136977836,0,-0.105000,-0.025000,1.043000,126,127,126,tap
1764136977856,0,-0.102000,-0.024000,1.045000,126,127,126,tap
1764136977876,0,-0.102000,-0.023000,1.048000,126,127,127,tap
1764136977897,0,-0.103000,-0.023000,1.047000,126,127,127,tap
1764136977917,0,-0.105000,-0.024000,1.046000,126,127,127,tap
1764136977938,0,-0.111000,-0.019000,1.046000,126,127,127,tap
1764136977958,0,-0.113000,-0.019000,1.044000,126,127,127,tap
1764136977980,0,-0.114000,-0.018000,1.047000,126,127,127,tap
1764136978001,59,-0.112000,-0.015000,1.046000,126,127,127,tap
1764136978022,28,-0.112000,-0.019000,1.050000,126,127,127,tap
1764136978042,0,-0.111000,-0.020000,1.045000,126,127,126,tap
1764136978063,0,-0.108000,-0.022000,1.045000,126,127,126,tap
1764136978083,0,-0.106000,-0.023000,1.044000,126,127,126,tap
1764136978104,0,-0.106000,-0.025000,1.046000,126,127,126,tap
1764136978124,0,-0.105000,-0.024000,1.042000,126,127,126,tap
1764136978144,0,-0.107000,-0.021000,1.045000,126,127,127,tap
1764136978164,0,-0.107000,-0.021000,1.045000,126,127,127,tap
1764136978184,0,-0.110000,-0.021000,1.043000,126,127,126,tap
1764136978205,0,-0.112000,-0.020000,1.042000,126,127,127,tap
1764136978226,0,-0.112000,-0.019000,1.043000,126,127,127,tap
1764136978247,0,-0.111000,-0.020000,1.043000,126,127,126,tap
1764136978268,0,-0.109000,-0.022000,1.043000,126,127,127,tap
1764136978289,0,-0.108000,-0.023000,1.043000,126,127,127,tap
1764136978309,0,-0.104000,-0.019000,1.034000,126,127,126,tap
1764136978330,81,-0.103000,-0.020000,1.042000,126,127,126,tap
1764136978351,72,-0.102000,-0.018000,1.043000,126,127,126,tap
1764136978371,0,-0.101000,-0.017000,1.037000,126,127,126,tap
1764136978392,0,-0.103000,-0.018000,1.038000,126,127,126,tap
1764136978412,0,-0.105000,-0.018000,1.043000,126,127,127,tap
1764136978433,0,-0.107000,-0.021000,1.039000,126,127,127,tap
1764136978453,0,-0.110000,-0.022000,1.042000,126,127,127,tap
1764136978474,0,-0.108000,-0.020000,1.044000,126,127,127,tap
1764136978495,0,-0.108000,-0.020000,1.045000,126,127,127,tap
1764136978516,0,-0.107000,-0.022000,1.043000,126,127,126,tap
1764136978536,0,-0.106000,-0.023000,1.043000,126,127,126,tap
1764136978557,0,-0.105000,-0.022000,1.045000,126,127,126,tap
1764136978577,0,-0.072000,-0.016000,1.019000,126,127,126,tap
1764136978598,23,-0.072000,-0.017000,1.022000,126,127,126,tap
1764136978618,17,-0.074000,-0.017000,1.021000,126,127,126,tap
1764136978638,0,-0.076000,-0.018000,1.022000,126,127,126,tap
1764136978659,0,-0.077000,-0.018000,1.023000,126,127,126,tap
1764136978679,0,-0.110000,-0.024000,1.046000,126,127,126,tap
1764136978700,0,-0.109000,-0.025000,1.043000,126,127,127,tap
1764136978720,0,-0.108000,-0.023000,1.044000,126,127,127,tap
1764136978741,0,-0.107000,-0.022000,1.045000,126,127,127,tap
1764136978762,0,-0.109000,-0.023000,1.045000,126,127,127,tap
1764136978782,0,-0.110000,-0.023000,1.042000,126,127,127,tap
1764136978803,0,-0.110000,-0.022000,1.044000,126,127,127,tap
1764136978823,0,-0.110000,-0.021000,1.045000,126,127,127,tap
1764136978844,0,-0.110000,-0.021000,1.045000,126,127,127,tap
1764136978864,0,-0.110000,-0.023000,1.043000,126,127,127,tap
1764136978884,86,-0.109000,-0.024000,1.045000,126,127,127,tap
1764136978905,64,-0.106000,-0.020000,1.043000,126,127,127,tap
1764136978925,0,-0.106000,-0.023000,1.044000,126,127,126,tap
1764136978946,0,-0.106000,-0.024000,1.040000,126,127,126,tap
1764136978966,0,-0.105000,-0.022000,1.042000,126,127,126,tap
1764136978986,0,-0.108000,-0.024000,1.045000,126,127,126,tap
1764136979006,0,-0.108000,-0.024000,1.042000,126,127,126,tap
1764136979027,0,-0.106000,-0.023000,1.044000,126,127,127,tap
1764136979048,0,-0.106000,-0.022000,1.044000,126,127,127,tap
1764136979069,0,-0.109000,-0.022000,1.042000,126,127,127,tap
1764136979090,0,-0.109000,-0.022000,1.041000,126,127,127,tap
1764136979110,0,-0.109000,-0.022000,1.041000,126,127,127,tap
1764136979130,0,-0.109000,-0.020000,1.045000,126,127,127,tap
1764136979151,0,-0.109000,-0.020000,1.044000,126,127,127,tap
1764136979171,89,-0.104000,-0.021000,1.041000,126,127,127,tap
1764136979192,71,-0.103000,-0.018000,1.039000,126,127,127,tap
1764136979212,1,-0.102000,-0.021000,1.036000,126,127,126,tap
1764136979233,0,-0.103000,-0.023000,1.037000,126,127,126,tap
1764136979253,0,-0.105000,-0.023000,1.041000,126,127,126,tap
1764136979274,0,-0.107000,-0.025000,1.044000,126,127,126,tap
1764136979295,0,-0.110000,-0.024000,1.042000,126,127,126,tap
1764136979315,0,-0.109000,-0.024000,1.045000,126,127,126,tap
1764136979335,0,-0.109000,-0.022000,1.044000,126,127,127,tap
1764136979355,0,-0.111000,-0.023000,1.043000,126,127,127,tap
1764136979376,0,-0.111000,-0.024000,1.043000,126,127,127,tap
1764136979396,0,-0.109000,-0.024000,1.044000,126,127,127,tap
1764136979417,0,-0.108000,-0.023000,1.044000,126,127,127,tap
1764136979437,0,-0.108000,-0.023000,1.043000,126,127,126,tap
1764136979458,122,-0.101000,-0.027000,1.047000,126,127,127,tap
1764136979478,20,-0.100000,-0.025000,1.053000,126,127,127,tap
1764136979499,5,-0.101000,-0.026000,1.050000,126,127,127,tap
1764136979520,0,-0.100000,-0.027000,1.050000,126,127,127,tap
1764136979541,0,-0.106000,-0.022000,1.047000,126,127,127,tap
1764136979562,0,-0.107000,-0.023000,1.048000,126,127,127,tap
1764136979582,0,-0.108000,-0.022000,1.043000,126,127,127,tap
1764136979602,0,-0.107000,-0.022000,1.047000,126,127,126,tap
1764136979622,0,-0.107000,-0.021000,1.047000,126,127,126,tap
1764136979642,0,-0.109000,-0.022000,1.045000,126,127,126,tap
1764136979662,0,-0.110000,-0.023000,1.043000,126,127,126,tap
1764136979682,0,-0.109000,-0.023000,1.043000,126,127,126,tap
1764136979702,0,-0.110000,-0.023000,1.042000,126,127,126,tap
1764136979723,121,-0.109000,-0.024000,1.044000,126,127,126,tap
1764136979743,114,-0.108000,-0.025000,1.044000,126,127,126,tap
1764136979763,83,-0.107000,-0.023000,1.042000,126,127,126,tap
1764136979783,0,-0.106000,-0.023000,1.042000,126,127,126,tap
1764136979803,0,-0.106000,-0.022000,1.043000,126,127,126,tap
1764136979823,0,-0.106000,-0.022000,1.046000,126,127,127,tap
1764136979844,0,-0.105000,-0.021000,1.041000,126,127,126,tap
1764136979865,0,-0.105000,-0.021000,1.044000,126,127,127,tap
1764136979886,0,-0.106000,-0.020000,1.046000,126,127,127,tap
1764136979906,0,-0.108000,-0.019000,1.045000,126,127,127,tap
1764136979926,0,-0.109000,-0.020000,1.044000,126,127,127,tap
1764136979947,0,-0.110000,-0.020000,1.046000,126,127,127,tap
1764136979967,0,-0.110000,-0.019000,1.047000,126,127,127,tap
1764136979987,0,-0.110000,-0.020000,1.046000,126,127,127,tap
1764136980007,0,-0.109000,-0.022000,1.044000,126,127,127,tap
1764136980027,143,-0.089000,-0.020000,1.047000,126,127,127,tap
1764136980048,0,-0.089000,-0.019000,1.050000,126,127,127,tap
1764136980068,0,-0.090000,-0.023000,1.048000,126,127,127,tap
1764136980089,0,-0.091000,-0.023000,1.048000,126,127,127,tap
1764136980109,0,-0.109000,-0.023000,1.047000,126,127,127,tap
1764136980130,0,-0.108000,-0.021000,1.045000,126,127,127,tap
1764136980150,0,-0.110000,-0.022000,1.042000,126,127,127,tap
1764136980171,0,-0.109000,-0.022000,1.043000,126,127,127,tap
1764136980191,0,-0.108000,-0.020000,1.045000,126,127,127,tap
1764136980212,0,-0.110000,-0.020000,1.046000,126,127,127,tap
1764136980232,0,-0.111000,-0.023000,1.044000,126,127,127,tap
1764136980253,0,-0.110000,-0.023000,1.044000,126,127,127,tap
1764136980273,0,-0.110000,-0.021000,1.045000,126,127,126,tap
1764136980293,0,-0.109000,-0.022000,1.045000,126,127,126,tap
1764136980314,0,-0.109000,-0.024000,1.043000,126,127,126,tap
1764136980335,42,-0.107000,-0.021000,1.043000,126,127,126,tap
1764136980356,6,-0.108000,-0.024000,1.045000,126,127,127,tap
1764136980377,0,-0.111000,-0.023000,1.040000,126,127,127,tap
1764136980398,0,-0.110000,-0.023000,1.042000,126,127,127,tap
1764136980419,0,-0.108000,-0.022000,1.042000,126,127,127,tap
1764136980440,0,-0.111000,-0.023000,1.043000,126,127,127,tap
1764136980460,0,-0.109000,-0.022000,1.041000,126,127,127,tap
1764136980481,0,-0.107000,-0.022000,1.043000,126,127,127,tap
1764136980501,0,-0.108000,-0.021000,1.042000,126,127,127,tap
1764136980522,0,-0.109000,-0.022000,1.042000,126,127,127,tap
1764136980542,0,-0.141000,-0.025000,1.059000,126,127,126,tap
1764136980562,115,-0.142000,-0.023000,1.064000,126,127,126,tap
1764136980583,122,-0.140000,-0.024000,1.068000,126,127,126,tap
1764136980604,159,-0.138000,-0.024000,1.063000,126,127,126,tap
1764136980624,48,-0.140000,-0.023000,1.065000,126,127,126,tap
1764136980645,0,-0.106000,-0.021000,1.047000,126,127,126,tap
1764136980667,0,-0.104000,-0.021000,1.046000,126,127,126,tap
1764136980687,0,-0.106000,-0.021000,1.040000,126,127,126,tap
1764136980708,0,-0.107000,-0.022000,1.041000,126,127,126,tap
1764136980728,0,-0.105000,-0.021000,1.042000,126,127,127,tap
1764136980749,0,-0.108000,-0.020000,1.044000,126,127,127,tap
1764136980769,0,-0.111000,-0.021000,1.041000,126,127,127,tap
1764136980789,0,-0.110000,-0.021000,1.041000,126,127,127,tap
1764136980810,0,-0.111000,-0.019000,1.044000,126,127,127,tap
1764136980830,0,-0.110000,-0.022000,1.042000,126,127,127,tap
1764136980851,0,-0.112000,-0.022000,1.044000,126,127,127,tap
1764136980873,61,-0.109000,-0.021000,1.043000,126,127,127,tap
1764136980894,65,-0.109000,-0.023000,1.046000,126,127,127,tap
1764136980914,7,-0.109000,-0.024000,1.042000,126,127,126,tap
1764136980934,0,-0.108000,-0.024000,1.043000,126,127,126,tap
1764136980954,0,-0.105000,-0.022000,1.043000,126,127,126,tap
1764136980974,0,-0.108000,-0.023000,1.044000,126,127,126,tap
1764136980994,0,-0.108000,-0.023000,1.041000,126,127,126,tap
1764136981014,0,-0.108000,-0.022000,1.043000,126,127,127,tap
1764136981035,0,-0.110000,-0.020000,1.044000,126,127,127,tap
1764136981055,0,-0.111000,-0.021000,1.042000,126,127,127,tap
1764136981076,0,-0.090000,-0.020000,1.030000,126,127,126,tap
1764136981096,29,-0.090000,-0.019000,1.034000,126,127,126,tap
1764136981117,0,-0.088000,-0.021000,1.033000,126,127,126,tap
1764136981137,0,-0.089000,-0.022000,1.032000,126,127,126,tap
1764136981158,0,-0.090000,-0.022000,1.033000,126,127,126,tap
1764136981179,0,-0.109000,-0.022000,1.046000,126,127,127,tap
1764136981199,0,-0.108000,-0.023000,1.046000,126,127,127,tap
1764136981219,0,-0.108000,-0.022000,1.045000,126,127,127,tap
1764136981240,0,-0.107000,-0.023000,1.045000,126,127,127,tap
1764136981260,0,-0.107000,-0.022000,1.046000,126,127,127,tap
1764136981281,0,-0.109000,-0.022000,1.046000,126,127,127,tap
1764136981301,0,-0.110000,-0.021000,1.042000,126,127,126,tap
1764136981322,0,-0.111000,-0.021000,1.042000,126,127,126,tap
1764136981342,48,-0.110000,-0.022000,1.029000,126,127,126,tap
1764136981363,10,-0.111000,-0.021000,1.029000,126,127,126,tap
1764136981383,0,-0.112000,-0.025000,1.026000,126,127,126,tap
1764136981404,0,-0.111000,-0.025000,1.027000,126,127,126,tap
1764136981425,0,-0.109000,-0.020000,1.045000,126,127,127,tap
1764136981446,0,-0.110000,-0.021000,1.045000,126,127,127,tap
1764136981466,0,-0.110000,-0.023000,1.041000,126,127,127,tap
1764136981486,0,-0.109000,-0.022000,1.042000,126,127,127,tap
1764136981506,0,-0.110000,-0.020000,1.045000,126,127,127,tap
1764136981527,0,-0.111000,-0.020000,1.044000,126,127,126,tap
1764136981547,0,-0.111000,-0.021000,1.041000,126,127,126,tap
1764136981567,0,-0.110000,-0.021000,1.044000,126,127,126,tap
1764136981588,0,-0.110000,-0.020000,1.046000,126,127,126,tap
1764136981609,0,-0.107000,-0.023000,1.043000,126,127,126,tap
1764136981630,0,-0.106000,-0.021000,1.047000,126,127,126,tap
1764136981650,128,-0.102000,-0.018000,1.046000,126,127,126,tap
1764136986424,0,-0.108000,-0.022000,1.043000,126,127,127,tap
1764136986446,0,-0.108000,-0.023000,1.042000,126,127,127,tap
1764136986467,0,-0.106000,-0.025000,1.042000,126,127,127,tap
1764136986488,0,-0.105000,-0.025000,1.042000,126,127,127,tap
1764136986508,0,-0.104000,-0.024000,1.046000,126,127,127,tap
1764136986529,0,-0.107000,-0.024000,1.044000,126,127,126,tap
1764136986549,0,-0.110000,-0.022000,1.043000,126,127,126,tap
1764136986570,0,-0.112000,-0.019000,1.043000,126,127,126,tap
1764136986589,0,-0.114000,-0.019000,1.043000,126,127,126,tap
1764136986609,0,-0.114000,-0.020000,1.042000,126,127,127,tap
1764136986629,0,-0.110000,-0.022000,1.043000,126,127,127,tap
1764136986650,0,-0.107000,-0.024000,1.045000,126,127,127,tap
1764136986671,0,-0.104000,-0.023000,1.045000,126,127,127,tap
1764136986692,0,-0.103000,-0.025000,1.044000,126,127,127,tap
1764136986713,0,-0.103000,-0.025000,1.044000,126,127,126,tap
1764136986733,0,-0.105000,-0.024000,1.046000,126,127,127,tap
1764136986753,0,-0.107000,-0.021000,1.045000,126,127,127,tap
1764136986774,0,-0.109000,-0.021000,1.044000,126,127,127,tap
1764136986794,0,-0.111000,-0.020000,1.043000,126,127,127,tap
1764136986814,0,-0.112000,-0.018000,1.042000,126,127,127,tap
1764136986834,0,-0.113000,-0.017000,1.041000,126,127,127,tap
1764136986855,0,-0.111000,-0.018000,1.042000,126,127,126,tap
1764136986874,0,-0.108000,-0.022000,1.041000,126,127,127,tap
1764136986894,0,-0.105000,-0.023000,1.041000,126,127,127,tap
1764136986914,0,-0.104000,-0.023000,1.042000,126,127,127,tap
1764136986935,0,-0.104000,-0.025000,1.042000,126,127,127,tap
1764136986956,0,-0.104000,-0.025000,1.043000,126,127,127,tap
1764136986977,0,-0.104000,-0.023000,1.044000,126,127,127,tap
1764136986999,0,-0.106000,-0.021000,1.045000,126,127,127,tap
1764136987020,0,-0.108000,-0.022000,1.044000,126,127,127,tap
1764136987040,0,-0.109000,-0.020000,1.043000,126,127,127,tap
1764136987061,0,-0.111000,-0.019000,1.046000,126,127,127,tap
1764136987082,0,-0.112000,-0.018000,1.045000,126,127,127,tap
1764136987102,0,-0.111000,-0.020000,1.045000,126,127,126,tap
1764136987122,0,-0.108000,-0.023000,1.044000,126,127,126,tap
1764136987143,0,-0.105000,-0.024000,1.042000,126,127,126,tap
1764136987164,0,-0.103000,-0.024000,1.043000,126,127,126,tap
1764136987185,0,-0.104000,-0.024000,1.043000,126,127,126,tap
1764136987207,0,-0.104000,-0.023000,1.044000,126,127,126,tap
1764136987228,0,-0.105000,-0.022000,1.044000,126,127,127,tap
1764136987249,0,-0.107000,-0.021000,1.043000,126,127,127,tap
1764136987270,0,-0.110000,-0.021000,1.042000,126,127,127,tap
1764136987291,0,-0.110000,-0.020000,1.041000,126,127,127,tap
1764136987311,0,-0.111000,-0.021000,1.043000,126,127,127,tap
1764136987332,0,-0.108000,-0.022000,1.042000,126,127,127,tap
1764136987353,0,-0.107000,-0.024000,1.043000,126,127,127,tap
1764136987373,0,-0.106000,-0.025000,1.044000,126,127,127,tap
1764136987394,0,-0.103000,-0.024000,1.040000,126,127,126,tap
1764136987415,0,-0.105000,-0.025000,1.042000,126,127,126,tap
1764136987436,0,-0.105000,-0.024000,1.041000,126,127,127,tap
1764136987457,0,-0.105000,-0.024000,1.041000,126,127,127,tap
1764136987477,0,-0.106000,-0.023000,1.041000,126,127,126,tap
1764136987498,46,-0.106000,-0.021000,1.055000,126,127,127,tap
1764136987518,57,-0.107000,-0.020000,1.057000,126,127,127,tap
1764136987539,0,-0.107000,-0.019000,1.058000,126,127,127,tap
1764136987558,0,-0.108000,-0.019000,1.057000,126,127,127,tap
1764136987578,0,-0.110000,-0.021000,1.045000,126,127,126,tap
1764136987598,0,-0.110000,-0.021000,1.045000,126,127,127,tap
1764136987619,0,-0.110000,-0.021000,1.044000,126,127,127,tap
1764136987640,0,-0.112000,-0.022000,1.043000,126,127,127,tap
1764136987661,0,-0.111000,-0.022000,1.045000,126,127,127,tap
1764136987683,0,-0.110000,-0.022000,1.047000,126,127,126,tap
1764136987703,0,-0.105000,-0.023000,1.041000,126,127,126,tap
1764136987723,154,-0.104000,-0.024000,1.041000,126,127,126,tap
1764136987743,0,-0.104000,-0.023000,1.042000,126,127,126,tap
1764136987764,0,-0.104000,-0.023000,1.040000,126,127,126,tap
1764136987784,0,-0.104000,-0.024000,1.041000,126,127,126,tap
1764136987805,0,-0.108000,-0.021000,1.043000,126,127,127,tap
1764136987825,0,-0.108000,-0.021000,1.044000,126,127,127,tap
1764136987846,0,-0.107000,-0.021000,1.046000,126,127,127,tap
1764136987867,0,-0.106000,-0.021000,1.044000,126,127,127,tap
1764136987887,0,-0.108000,-0.022000,1.044000,126,127,127,tap
1764136987908,0,-0.108000,-0.023000,1.046000,126,127,127,tap
1764136987928,157,-0.107000,-0.020000,1.046000,126,127,127,tap
1764136987949,5,-0.107000,-0.019000,1.048000,126,127,127,tap
1764136987970,0,-0.108000,-0.021000,1.044000,126,127,127,tap
1764136987990,0,-0.108000,-0.021000,1.044000,126,127,127,tap
1764136988011,0,-0.107000,-0.020000,1.043000,126,127,127,tap
1764136988031,0,-0.108000,-0.021000,1.045000,126,127,127,tap
1764136988052,0,-0.110000,-0.023000,1.041000,126,127,127,tap
1764136988072,0,-0.110000,-0.022000,1.044000,126,127,127,tap
1764136988093,0,-0.110000,-0.021000,1.045000,126,127,127,tap
1764136988113,0,-0.110000,-0.022000,1.043000,126,127,127,tap
1764136988134,0,-0.109000,-0.022000,1.044000,126,127,127,tap
1764136988155,0,-0.105000,-0.023000,1.054000,126,127,127,tap
1764136988175,306,-0.105000,-0.021000,1.056000,126,127,127,tap
1764136988196,109,-0.108000,-0.023000,1.059000,126,127,127,tap
1764136988216,0,-0.107000,-0.024000,1.052000,126,127,127,tap
1764136988237,0,-0.107000,-0.025000,1.051000,126,127,126,tap
1764136988257,0,-0.111000,-0.023000,1.045000,126,127,127,tap
1764136988277,0,-0.110000,-0.024000,1.043000,126,127,127,tap
1764136988298,0,-0.109000,-0.024000,1.038000,126,127,127,tap
1764136988318,0,-0.109000,-0.024000,1.044000,126,127,127,tap
1764136988339,0,-0.107000,-0.021000,1.050000,126,127,126,tap
1764136988360,0,-0.096000,-0.019000,1.022000,126,127,127,tap
1764136988383,254,-0.095000,-0.019000,1.024000,126,127,126,tap
1764136988404,68,-0.095000,-0.016000,1.028000,126,127,126,tap
1764136988425,0,-0.097000,-0.016000,1.024000,126,127,126,tap
1764136988446,0,-0.099000,-0.020000,1.021000,126,127,126,tap
1764136988466,0,-0.110000,-0.023000,1.042000,126,127,126,tap
1764136988486,0,-0.111000,-0.022000,1.043000,126,127,126,tap
1764136988507,0,-0.110000,-0.023000,1.042000,126,127,126,tap
1764136988528,0,-0.109000,-0.024000,1.042000,127,127,126,tap
1764136988548,0,-0.107000,-0.023000,1.044000,127,127,126,tap
1764136988569,330,-0.111000,-0.013000,1.034000,126,127,126,tap
1764136988590,112,-0.111000,-0.013000,1.037000,126,127,126,tap
1764136988611,0,-0.114000,-0.012000,1.032000,126,127,127,tap
1764136988632,0,-0.115000,-0.014000,1.032000,126,127,127,tap
1764136988654,0,-0.109000,-0.021000,1.045000,126,127,127,tap
1764136988675,0,-0.110000,-0.022000,1.043000,126,127,127,tap
1764136988696,0,-0.111000,-0.024000,1.039000,126,127,126,tap
1764136988716,0,-0.106000,-0.025000,1.043000,126,127,126,tap
1764136988736,160,-0.102000,-0.022000,1.047000,126,127,126,tap
1764136988757,0,-0.102000,-0.018000,1.047000,126,127,126,tap
1764136988778,0,-0.104000,-0.021000,1.042000,126,127,127,tap
1764136988798,0,-0.107000,-0.020000,1.041000,126,127,127,tap
1764136988819,0,-0.109000,-0.021000,1.037000,126,127,127,tap
1764136988840,0,-0.109000,-0.023000,1.039000,126,127,127,tap
1764136988861,0,-0.110000,-0.022000,1.040000,127,127,127,tap
1764136988881,0,-0.108000,-0.021000,1.043000,127,127,127,tap
1764136988901,0,-0.109000,-0.020000,1.044000,127,127,127,tap
1764136988921,102,-0.110000,-0.021000,1.049000,126,127,126,tap
1764136988941,102,-0.108000,-0.019000,1.046000,126,127,126,tap
1764136988961,0,-0.107000,-0.021000,1.047000,126,127,126,tap
1764136988982,0,-0.110000,-0.022000,1.044000,126,127,126,tap
1764136989002,0,-0.108000,-0.023000,1.042000,126,127,126,tap
1764136989023,0,-0.106000,-0.023000,1.039000,126,127,126,tap
1764136989043,0,-0.107000,-0.024000,1.044000,126,127,126,tap
1764136989064,0,-0.103000,-0.023000,1.046000,127,127,126,tap
1764136989084,0,-0.138000,-0.023000,1.062000,127,127,127,tap
1764136989105,309,-0.140000,-0.019000,1.061000,127,127,127,tap
1764136989127,0,-0.141000,-0.019000,1.066000,126,127,127,tap
1764136989146,0,-0.144000,-0.019000,1.057000,126,127,127,tap
1764136989167,0,-0.149000,-0.020000,1.060000,126,127,127,tap
1764136989187,0,-0.112000,-0.020000,1.041000,126,127,126,tap
1764136989208,0,-0.111000,-0.023000,1.043000,126,127,126,tap
1764136989228,0,-0.109000,-0.023000,1.040000,126,127,126,tap
1764136989247,0,-0.104000,-0.025000,1.043000,126,127,126,tap
1764136989267,0,-0.103000,-0.026000,1.042000,126,127,126,tap
1764136989290,0,-0.109000,-0.024000,1.047000,126,127,126,tap
1764136989311,0,-0.103000,-0.024000,1.030000,127,127,126,tap
1764136989332,254,-0.108000,-0.019000,1.031000,127,127,126,tap
1764136989353,0,-0.107000,-0.014000,1.036000,126,127,126,tap
1764136989375,0,-0.104000,-0.015000,1.034000,126,127,126,tap
1764136989396,0,-0.109000,-0.018000,1.031000,126,127,127,tap
1764136989416,0,-0.112000,-0.018000,1.042000,126,127,126,tap
1764136989436,0,-0.106000,-0.020000,1.047000,126,127,126,tap
1764136989456,0,-0.105000,-0.022000,1.043000,126,127,126,tap
1764136989478,0,-0.103000,-0.026000,1.043000,126,127,127,tap
1764136989499,0,-0.100000,-0.026000,1.045000,127,127,127,tap
1764136989521,0,-0.105000,-0.022000,1.047000,126,127,126,tap
1764136989542,0,-0.104000,-0.024000,1.048000,126,127,126,tap
1764136989563,347,-0.108000,-0.019000,1.048000,126,127,126,tap
1764136989584,267,-0.110000,-0.015000,1.056000,126,127,126,tap
1764136989605,133,-0.112000,-0.015000,1.052000,126,127,126,tap
1764136989625,0,-0.112000,-0.020000,1.048000,126,127,126,tap
1764136989645,0,-0.113000,-0.020000,1.044000,126,127,126,tap
1764136989666,0,-0.106000,-0.021000,1.049000,126,127,126,tap
1764136989687,0,-0.103000,-0.024000,1.044000,126,127,126,tap
1764136989707,0,-0.100000,-0.028000,1.043000,126,127,126,tap
1764136989727,0,-0.100000,-0.025000,1.047000,127,127,126,tap
1764136989748,0,-0.097000,-0.021000,1.039000,127,127,126,tap
1764136989769,52,-0.104000,-0.021000,1.039000,126,127,126,tap
1764136989791,155,-0.104000,-0.016000,1.035000,126,127,126,tap
1764136989812,0,-0.107000,-0.014000,1.036000,126,127,126,tap
1764136989833,0,-0.108000,-0.016000,1.033000,126,127,126,tap
1764136989853,0,-0.113000,-0.020000,1.038000,126,127,126,tap
1764136989874,0,-0.109000,-0.021000,1.039000,126,127,127,tap
1764136989894,0,-0.108000,-0.024000,1.042000,126,127,126,tap
1764136989915,0,-0.104000,-0.025000,1.043000,126,127,126,tap
1764136989935,0,-0.104000,-0.023000,1.048000,126,127,127,tap
1764136989956,0,-0.104000,-0.023000,1.046000,126,127,127,tap
1764136989976,0,-0.100000,-0.027000,1.040000,126,127,127,tap
1764136989997,214,-0.105000,-0.026000,1.035000,126,127,127,tap
1764136990018,88,-0.107000,-0.023000,1.040000,126,127,127,tap
1764136990039,5,-0.107000,-0.023000,1.038000,126,127,126,tap
1764136990060,0,-0.110000,-0.023000,1.036000,126,127,126,tap
1764136990080,0,-0.117000,-0.020000,1.040000,126,127,126,tap
1764136990101,0,-0.112000,-0.021000,1.044000,126,127,126,tap
1764136990121,0,-0.112000,-0.022000,1.041000,126,127,127,tap
1764136990141,0,-0.111000,-0.023000,1.042000,126,127,127,tap
1764136990162,0,-0.107000,-0.024000,1.044000,126,127,127,tap
1764136990181,0,-0.104000,-0.025000,1.047000,126,127,127,tap
1764136990202,0,-0.097000,-0.022000,1.038000,126,127,127,tap
1764136990221,83,-0.097000,-0.022000,1.041000,126,127,127,tap
1764136990243,71,-0.099000,-0.016000,1.035000,126,127,127,tap
1764136990264,0,-0.102000,-0.016000,1.036000,126,127,127,tap
1764136990285,0,-0.104000,-0.018000,1.032000,126,127,127,tap
1764136990307,0,-0.112000,-0.018000,1.038000,126,127,127,tap
1764136990326,0,-0.113000,-0.018000,1.037000,126,127,127,tap
1764136990346,0,-0.112000,-0.022000,1.041000,126,127,127,tap
1764136990366,0,-0.110000,-0.022000,1.042000,126,127,127,tap
1764136990387,0,-0.106000,-0.022000,1.046000,126,127,127,tap
1764136990407,3,-0.097000,-0.024000,1.048000,126,127,126,tap
1764136990428,0,-0.100000,-0.024000,1.048000,126,127,126,tap
1764136990448,0,-0.100000,-0.022000,1.047000,126,127,126,tap
1764136990469,0,-0.101000,-0.022000,1.049000,126,127,126,tap
1764136990490,0,-0.114000,-0.021000,1.042000,126,127,127,tap
1764136990509,0,-0.112000,-0.022000,1.039000,126,127,127,tap
1764136990530,0,-0.112000,-0.021000,1.043000,126,127,127,tap
1764136990551,0,-0.110000,-0.020000,1.042000,126,127,127,tap
1764136990572,0,-0.109000,-0.022000,1.045000,126,127,127,tap
1764136990592,39,-0.108000,-0.019000,1.045000,126,127,126,tap
1764136990613,0,-0.107000,-0.020000,1.048000,126,127,126,tap
1764136990633,0,-0.107000,-0.024000,1.044000,126,127,126,tap
1764136990654,0,-0.106000,-0.027000,1.041000,126,127,126,tap
1764136990674,0,-0.106000,-0.027000,1.041000,126,127,126,tap
1764136990694,0,-0.106000,-0.026000,1.045000,126,127,126,tap
1764136990715,0,-0.105000,-0.025000,1.046000,127,127,126,tap
1764136990735,0,-0.108000,-0.023000,1.046000,127,127,126,tap
1764136990755,115,-0.109000,-0.018000,1.048000,126,127,126,tap
1764136990776,88,-0.111000,-0.017000,1.047000,126,127,127,tap
1764136990797,0,-0.115000,-0.020000,1.040000,126,127,127,tap
1764136990818,0,-0.112000,-0.023000,1.038000,126,127,127,tap
1764136990838,0,-0.110000,-0.022000,1.038000,126,127,127,tap
1764136990858,0,-0.110000,-0.023000,1.042000,126,127,127,tap
1764136990879,0,-0.107000,-0.025000,1.043000,126,127,127,tap
1764136990899,0,-0.102000,-0.026000,1.044000,126,127,127,tap
1764136990919,0,-0.105000,-0.023000,1.047000,126,127,127,tap
1764136990940,146,-0.108000,-0.021000,1.048000,126,127,126,tap
1764136990961,1,-0.107000,-0.021000,1.046000,126,127,126,tap
1764136990981,0,-0.111000,-0.022000,1.044000,126,127,127,tap
1764136991001,0,-0.114000,-0.021000,1.040000,126,127,126,tap
1764136991022,0,-0.109000,-0.021000,1.040000,126,127,126,tap
1764136991042,0,-0.111000,-0.022000,1.042000,126,127,126,tap
1764136991064,0,-0.108000,-0.023000,1.040000,126,127,126,tap
1764136991084,0,-0.105000,-0.022000,1.046000,126,127,126,tap
1764136991105,0,-0.086000,-0.022000,1.036000,126,127,126,tap
1764136991126,160,-0.089000,-0.022000,1.037000,126,127,127,tap
1764136991146,81,-0.090000,-0.022000,1.035000,126,127,127,tap
1764136991166,0,-0.091000,-0.020000,1.032000,126,127,127,tap
1764136991186,0,-0.094000,-0.020000,1.034000,126,127,127,tap
1764136991207,0,-0.111000,-0.019000,1.041000,126,127,127,tap
1764136991226,0,-0.109000,-0.022000,1.039000,126,127,127,tap
1764136991247,0,-0.110000,-0.023000,1.039000,126,127,127,tap
1764136991268,0,-0.105000,-0.024000,1.044000,126,127,127,tap
1764136991289,0,-0.107000,-0.023000,1.047000,126,127,127,tap
1764136991309,185,-0.106000,-0.022000,1.045000,126,127,127,tap
1764136991331,32,-0.105000,-0.022000,1.048000,126,127,127,tap
1764136991351,0,-0.107000,-0.021000,1.043000,126,127,127,tap
1764136991372,0,-0.109000,-0.021000,1.041000,126,127,127,tap
1764136991392,0,-0.108000,-0.022000,1.040000,126,127,127,tap
1764136991413,0,-0.108000,-0.022000,1.041000,126,127,127,tap
1764136991434,0,-0.110000,-0.021000,1.040000,126,127,127,tap
1764136991455,0,-0.107000,-0.022000,1.044000,126,127,126,tap
1764136991476,0,-0.106000,-0.020000,1.038000,126,127,127,tap
1764136991497,88,-0.106000,-0.018000,1.039000,126,127,126,tap
1764136991518,0,-0.105000,-0.019000,1.041000,126,127,127,tap
1764136991539,0,-0.108000,-0.018000,1.037000,126,127,127,tap
1764136991560,0,-0.110000,-0.019000,1.036000,126,127,126,tap
1764136991580,0,-0.109000,-0.021000,1.042000,126,127,126,tap
1764136991600,0,-0.110000,-0.022000,1.042000,126,127,127,tap
1764136991621,0,-0.110000,-0.019000,1.040000,126,127,126,tap
1764136991641,0,-0.108000,-0.021000,1.043000,126,127,126,tap
1764136991661,0,-0.107000,-0.022000,1.042000,126,127,127,tap
1764136991681,0,-0.109000,-0.020000,1.045000,126,127,127,tap
1764136991701,0,-0.108000,-0.020000,1.044000,126,127,126,tap
1764136991721,134,-0.107000,-0.023000,1.044000,126,127,127,tap
1764136991742,13,-0.109000,-0.022000,1.045000,126,127,127,tap
1764136991762,0,-0.107000,-0.021000,1.046000,126,127,127,tap
1764136991783,0,-0.108000,-0.024000,1.045000,126,127,127,tap
1764136991803,0,-0.109000,-0.024000,1.043000,126,127,127,tap
1764136991824,0,-0.105000,-0.025000,1.045000,126,127,127,tap
1764136991845,0,-0.106000,-0.024000,1.044000,126,127,127,tap
1764136991866,0,-0.108000,-0.023000,1.045000,126,127,127,tap
1764136991887,0,-0.107000,-0.020000,1.045000,127,127,127,tap
1764136991907,0,-0.110000,-0.019000,1.044000,126,127,127,tap
1764136991927,0,-0.105000,-0.020000,1.040000,126,127,127,tap
1764136991948,7,-0.105000,-0.021000,1.042000,126,127,126,tap
1764136991967,0,-0.102000,-0.019000,1.042000,126,127,126,tap
1764136991987,0,-0.102000,-0.020000,1.040000,126,127,126,tap
1764136992008,0,-0.101000,-0.023000,1.040000,126,127,126,tap
1764136992028,0,-0.104000,-0.022000,1.044000,126,127,127,tap
1764136992049,0,-0.104000,-0.024000,1.046000,126,127,127,tap
1764136992069,0,-0.103000,-0.026000,1.046000,126,127,127,tap
1764136992090,0,-0.103000,-0.023000,1.047000,126,127,127,tap
1764136992116,0,-0.104000,-0.021000,1.042000,126,127,127,tap
1764136992137,12,-0.107000,-0.021000,1.041000,126,127,127,tap
1764136992157,0,-0.110000,-0.019000,1.038000,126,127,127,tap
1764136992177,0,-0.112000,-0.018000,1.037000,126,127,127,tap
1764136992197,0,-0.114000,-0.019000,1.038000,126,127,127,tap
1764136992218,0,-0.114000,-0.021000,1.041000,126,127,127,tap
1764136992238,0,-0.106000,-0.024000,1.044000,126,127,126,tap
1764136992259,0,-0.103000,-0.025000,1.047000,126,127,126,tap
1764136992279,0,-0.102000,-0.024000,1.047000,126,127,127,tap
1764136992300,0,-0.103000,-0.024000,1.048000,126,127,126,tap
1764136992322,0,-0.102000,-0.019000,1.047000,126,127,126,tap
1764136992342,31,-0.107000,-0.019000,1.048000,126,127,127,tap
1764136992362,95,-0.105000,-0.016000,1.045000,126,127,126,tap
1764136992382,95,-0.105000,-0.016000,1.046000,126,127,126,tap
1764136992403,0,-0.107000,-0.017000,1.045000,126,127,127,tap
1764136992423,0,-0.109000,-0.022000,1.040000,126,127,126,tap
1764136994763,0,-0.109000,-0.022000,1.044000,126,127,126,tap
1764136994783,0,-0.109000,-0.022000,1.043000,126,127,126,tap
1764136994803,0,-0.109000,-0.022000,1.043000,126,127,126,tap
1764136994824,0,-0.108000,-0.023000,1.039000,126,127,126,tap
1764136994844,0,-0.109000,-0.020000,1.043000,126,127,127,tap
1764136994864,0,-0.109000,-0.020000,1.042000,126,127,127,tap
1764136994885,0,-0.110000,-0.022000,1.042000,126,127,127,tap
1764136994904,0,-0.111000,-0.020000,1.043000,126,127,127,tap
1764136994925,0,-0.111000,-0.018000,1.042000,126,127,126,tap
1764136994946,0,-0.107000,-0.021000,1.043000,126,127,126,tap
1764136994966,0,-0.106000,-0.022000,1.042000,126,127,126,tap
1764136994986,0,-0.105000,-0.022000,1.043000,126,127,126,tap
1764136995005,0,-0.103000,-0.022000,1.046000,126,127,126,tap
1764136995026,0,-0.104000,-0.023000,1.045000,127,127,126,tap
1764136995045,0,-0.108000,-0.021000,1.043000,127,127,126,tap
1764136995065,0,-0.110000,-0.021000,1.042000,127,127,126,tap
1764136995085,0,-0.111000,-0.018000,1.044000,127,127,126,tap
1764136995106,0,-0.113000,-0.016000,1.043000,126,127,127,tap
1764136995126,0,-0.112000,-0.017000,1.042000,126,127,126,tap
1764136995147,0,-0.107000,-0.020000,1.044000,126,127,127,tap
1764136995167,0,-0.104000,-0.021000,1.044000,126,127,127,tap
1764136995188,0,-0.102000,-0.023000,1.044000,126,127,127,tap
1764136995209,0,-0.103000,-0.023000,1.043000,126,127,127,tap
1764136995229,0,-0.105000,-0.022000,1.044000,126,127,127,tap
1764136995250,0,-0.106000,-0.022000,1.044000,126,127,127,tap
1764136995270,0,-0.109000,-0.022000,1.044000,126,127,127,tap
1764136995291,0,-0.111000,-0.021000,1.042000,126,127,127,tap
1764136995311,0,-0.111000,-0.021000,1.042000,126,127,127,tap
1764136995331,0,-0.111000,-0.021000,1.042000,126,127,127,tap
1764136995352,30,-0.111000,-0.021000,1.042000,126,127,127,tap
1764136995372,65,-0.111000,-0.025000,1.040000,126,127,127,tap
1764136995393,67,-0.112000,-0.027000,1.042000,126,127,127,tap
1764136995413,0,-0.108000,-0.026000,1.043000,126,127,127,tap
1764136995434,0,-0.109000,-0.027000,1.044000,126,127,127,tap
1764136995454,0,-0.108000,-0.023000,1.044000,126,127,127,tap
1764136995475,0,-0.107000,-0.022000,1.043000,126,127,127,tap
1764136995497,0,-0.106000,-0.021000,1.042000,126,127,127,tap
1764136995517,0,-0.108000,-0.021000,1.042000,126,127,127,tap
1764136995538,14,-0.109000,-0.020000,1.041000,126,127,127,tap
1764136995559,14,-0.097000,-0.019000,1.041000,126,127,127,tap
1764136995579,10,-0.098000,-0.019000,1.043000,126,127,127,tap
1764136995600,0,-0.098000,-0.019000,1.042000,126,127,127,tap
1764136995620,0,-0.098000,-0.022000,1.041000,126,127,126,tap
1764136995642,0,-0.098000,-0.022000,1.041000,126,127,126,tap
1764136995663,0,-0.104000,-0.024000,1.041000,126,127,126,tap
1764136995684,0,-0.105000,-0.025000,1.042000,126,127,126,tap
1764136995705,0,-0.105000,-0.023000,1.041000,126,127,127,tap
1764136995725,0,-0.104000,-0.023000,1.042000,126,127,126,tap
1764136995745,265,-0.113000,-0.022000,1.047000,126,127,127,tap
1764136995766,164,-0.118000,-0.020000,1.046000,126,127,127,tap
1764136995787,0,-0.118000,-0.021000,1.050000,126,127,127,tap
1764136995807,0,-0.119000,-0.021000,1.048000,126,127,127,tap
1764136995827,0,-0.121000,-0.020000,1.049000,126,127,127,tap
1764136995848,0,-0.113000,-0.019000,1.045000,126,127,127,tap
1764136995868,0,-0.110000,-0.021000,1.043000,126,127,127,tap
1764136995889,0,-0.110000,-0.021000,1.038000,126,127,126,tap
1764136995909,0,-0.105000,-0.022000,1.044000,126,127,126,tap
1764136995929,271,-0.083000,-0.027000,1.013000,127,127,127,tap
1764136995950,245,-0.084000,-0.027000,1.014000,127,127,126,tap
1764136995971,65,-0.084000,-0.026000,1.019000,126,127,126,tap
1764136995991,0,-0.088000,-0.025000,1.017000,126,127,126,tap
1764136996012,0,-0.091000,-0.026000,1.016000,126,127,126,tap
1764136996032,0,-0.114000,-0.022000,1.046000,126,127,126,tap
1764136996053,0,-0.113000,-0.022000,1.046000,126,127,126,tap
1764136996073,0,-0.113000,-0.022000,1.042000,126,127,126,tap
1764136996093,0,-0.110000,-0.024000,1.041000,126,127,126,tap
1764136996114,0,-0.106000,-0.024000,1.043000,126,127,127,tap
1764136996135,0,-0.107000,-0.023000,1.045000,126,127,126,tap
1764136996155,188,-0.107000,-0.024000,1.051000,126,127,127,tap
1764136996176,0,-0.106000,-0.021000,1.052000,126,127,127,tap
1764136996197,0,-0.109000,-0.021000,1.045000,126,127,126,tap
1764136996217,0,-0.111000,-0.022000,1.044000,126,127,127,tap
1764136996238,0,-0.110000,-0.020000,1.038000,126,127,126,tap
1764136996259,0,-0.112000,-0.021000,1.039000,126,127,127,tap
1764136996279,0,-0.112000,-0.022000,1.038000,126,127,127,tap
1764136996300,0,-0.109000,-0.021000,1.042000,126,127,127,tap
1764136996321,0,-0.105000,-0.021000,1.045000,126,127,127,tap
1764136996341,0,-0.107000,-0.022000,1.045000,126,127,127,tap
1764136996362,307,-0.108000,-0.023000,1.037000,126,127,127,tap
1764136996383,145,-0.106000,-0.019000,1.046000,126,127,127,tap
1764136996403,0,-0.109000,-0.019000,1.040000,126,127,126,tap
1764136996424,0,-0.111000,-0.021000,1.043000,126,127,126,tap
1764136996448,0,-0.109000,-0.020000,1.048000,126,127,126,tap
1764136996469,0,-0.110000,-0.021000,1.047000,126,127,126,tap
1764136996489,0,-0.111000,-0.023000,1.041000,126,127,126,tap
1764136996514,0,-0.108000,-0.024000,1.043000,126,127,126,tap
1764136996534,0,-0.104000,-0.022000,1.046000,126,127,127,tap
1764136996555,0,-0.105000,-0.025000,1.054000,126,127,127,tap
1764136996575,296,-0.104000,-0.022000,1.050000,126,127,127,tap
1764136996597,102,-0.106000,-0.021000,1.050000,126,127,127,tap
1764136996619,0,-0.111000,-0.020000,1.039000,126,127,127,tap
1764136996638,0,-0.112000,-0.021000,1.038000,126,127,126,tap
1764136996659,0,-0.110000,-0.019000,1.032000,126,127,127,tap
1764136996679,0,-0.111000,-0.021000,1.036000,126,127,127,tap
1764136996700,0,-0.111000,-0.022000,1.038000,126,127,126,tap
1764136996720,0,-0.105000,-0.024000,1.046000,126,127,127,tap
1764136996740,0,-0.104000,-0.024000,1.048000,126,127,127,tap
1764136996761,270,-0.101000,-0.025000,1.038000,126,127,127,tap
1764136996781,10,-0.100000,-0.025000,1.042000,126,127,127,tap
1764136996802,0,-0.106000,-0.020000,1.040000,126,127,127,tap
1764136996823,0,-0.109000,-0.020000,1.041000,126,127,127,tap
1764136996843,0,-0.111000,-0.021000,1.044000,126,127,127,tap
1764136996864,0,-0.113000,-0.021000,1.042000,126,127,127,tap
1764136996885,0,-0.113000,-0.021000,1.040000,126,127,126,tap
1764136996905,0,-0.108000,-0.022000,1.043000,126,127,127,tap
1764136996925,347,-0.104000,-0.022000,1.055000,126,127,126,tap
1764136996946,150,-0.104000,-0.019000,1.054000,126,127,127,tap
1764136996966,6,-0.108000,-0.020000,1.059000,126,127,126,tap
1764136996986,0,-0.110000,-0.022000,1.055000,126,127,126,tap
1764136997007,0,-0.111000,-0.019000,1.056000,126,127,126,tap
1764136997027,0,-0.111000,-0.019000,1.047000,126,127,126,tap
1764136997048,0,-0.113000,-0.026000,1.042000,126,127,126,tap
1764136997068,0,-0.103000,-0.025000,1.046000,126,127,127,tap
1764136997088,0,-0.102000,-0.023000,1.052000,126,127,127,tap
1764136997109,0,-0.105000,-0.024000,1.044000,126,127,127,tap
1764136997130,277,-0.110000,-0.025000,1.049000,127,127,127,tap
1764136997152,136,-0.110000,-0.017000,1.048000,126,127,127,tap
1764136997172,0,-0.117000,-0.014000,1.053000,126,127,127,tap
1764136997193,0,-0.122000,-0.017000,1.041000,126,127,126,tap
1764136997212,0,-0.122000,-0.020000,1.040000,126,127,126,tap
1764136997232,0,-0.116000,-0.016000,1.043000,126,127,126,tap
1764136997253,0,-0.110000,-0.018000,1.046000,126,127,126,tap
1764136997273,0,-0.108000,-0.024000,1.039000,126,127,126,tap
1764136997294,0,-0.103000,-0.027000,1.041000,126,127,127,tap
1764136997314,0,-0.099000,-0.024000,1.045000,126,127,126,tap
1764136997335,333,-0.104000,-0.020000,1.048000,126,127,126,tap
1764136997355,0,-0.106000,-0.021000,1.050000,126,127,127,tap
1764136997376,0,-0.112000,-0.019000,1.044000,126,127,127,tap
1764136997397,0,-0.116000,-0.016000,1.045000,126,127,127,tap
1764136997419,0,-0.109000,-0.017000,1.044000,126,127,127,tap
1764136997439,0,-0.111000,-0.018000,1.041000,126,127,127,tap
1764136997458,0,-0.112000,-0.019000,1.036000,126,127,127,tap
1764136997478,0,-0.104000,-0.020000,1.045000,126,127,126,tap
1764136997499,217,-0.097000,-0.020000,1.046000,126,127,127,tap
1764136997519,189,-0.102000,-0.021000,1.042000,126,127,127,tap
1764136997540,0,-0.101000,-0.024000,1.040000,126,127,126,tap
1764136997560,0,-0.100000,-0.023000,1.041000,126,127,126,tap
1764136997580,0,-0.105000,-0.021000,1.044000,126,127,126,tap
1764136997601,0,-0.110000,-0.024000,1.041000,126,127,126,tap
1764136997621,0,-0.112000,-0.022000,1.043000,126,127,127,tap
1764136997641,0,-0.111000,-0.018000,1.048000,126,127,126,tap
1764136997662,0,-0.106000,-0.019000,1.045000,126,127,127,tap
1764136997684,332,-0.109000,-0.022000,1.043000,126,127,127,tap
1764136997705,0,-0.109000,-0.019000,1.044000,126,127,127,tap
1764136997724,0,-0.105000,-0.021000,1.054000,126,127,127,tap
1764136997745,0,-0.107000,-0.022000,1.046000,126,127,127,tap
1764136997764,0,-0.110000,-0.023000,1.046000,126,127,126,tap
1764136997785,0,-0.108000,-0.025000,1.046000,126,127,126,tap
1764136997806,0,-0.106000,-0.026000,1.047000,126,127,127,tap
1764136997826,0,-0.109000,-0.023000,1.042000,126,127,127,tap
1764136997846,0,-0.107000,-0.024000,1.044000,127,127,126,tap
1764136997867,360,-0.106000,-0.015000,1.051000,126,127,127,tap
1764136997888,0,-0.108000,-0.015000,1.058000,126,127,126,tap
1764136997909,0,-0.108000,-0.016000,1.049000,126,127,126,tap
1764136997931,0,-0.110000,-0.017000,1.051000,126,127,127,tap
1764136997953,0,-0.108000,-0.019000,1.043000,126,127,127,tap
1764136997973,0,-0.109000,-0.023000,1.046000,126,127,127,tap
1764136997994,0,-0.109000,-0.023000,1.038000,126,127,127,tap
1764136998015,0,-0.106000,-0.024000,1.046000,126,127,127,tap
1764136998035,0,-0.101000,-0.022000,1.047000,126,127,127,tap
1764136998056,365,-0.097000,-0.021000,1.038000,126,127,127,tap
1764136998076,115,-0.101000,-0.021000,1.044000,126,127,127,tap
1764136998095,0,-0.104000,-0.019000,1.040000,126,127,127,tap
1764136998117,0,-0.112000,-0.020000,1.042000,126,127,127,tap
1764136998139,0,-0.114000,-0.021000,1.049000,126,127,127,tap
1764136998161,0,-0.114000,-0.022000,1.047000,126,127,127,tap
1764136998182,0,-0.113000,-0.022000,1.041000,126,127,127,tap
1764136998203,0,-0.110000,-0.024000,1.044000,126,127,126,tap
1764136998224,0,-0.103000,-0.024000,1.045000,126,127,127,tap
1764136998244,0,-0.106000,-0.022000,1.046000,126,127,127,tap
1764136998264,14,-0.101000,-0.023000,1.042000,126,127,126,tap
1764136998285,110,-0.103000,-0.020000,1.042000,126,127,126,tap
1764136998306,0,-0.107000,-0.019000,1.040000,126,127,126,tap
1764136998327,0,-0.107000,-0.021000,1.036000,126,127,126,tap
1764136998349,0,-0.114000,-0.020000,1.039000,126,127,127,tap
1764136998370,0,-0.112000,-0.017000,1.039000,126,127,127,tap
1764136998391,0,-0.110000,-0.021000,1.042000,126,127,127,tap
1764136998412,0,-0.107000,-0.024000,1.039000,126,127,127,tap
1764136998432,0,-0.106000,-0.024000,1.043000,126,127,127,tap
1764136998453,0,-0.104000,-0.023000,1.047000,126,127,127,tap
1764136998473,0,-0.103000,-0.024000,1.048000,126,127,127,tap
1764136998494,148,-0.113000,-0.022000,1.048000,126,127,127,tap
1764136998514,147,-0.117000,-0.018000,1.044000,126,127,127,tap
1764136998534,7,-0.119000,-0.019000,1.041000,126,127,127,tap
1764136998555,0,-0.122000,-0.021000,1.041000,126,127,127,tap
1764136998576,0,-0.112000,-0.022000,1.039000,126,127,126,tap
1764136998597,0,-0.108000,-0.023000,1.046000,126,127,127,tap
1764136998617,0,-0.108000,-0.025000,1.045000,126,127,126,tap
1764136998638,0,-0.106000,-0.026000,1.045000,126,127,126,tap
1764136998658,0,-0.101000,-0.025000,1.045000,126,127,126,tap
1764136998683,0,-0.115000,-0.025000,1.050000,126,127,126,tap
1764136998703,204,-0.118000,-0.023000,1.050000,126,127,126,tap
1764136998724,74,-0.123000,-0.020000,1.051000,126,127,127,tap
1764136998745,0,-0.130000,-0.021000,1.053000,126,127,127,tap
1764136998765,0,-0.116000,-0.020000,1.047000,126,127,127,tap
1764136998786,0,-0.114000,-0.023000,1.048000,126,127,127,tap
1764136998809,0,-0.114000,-0.023000,1.041000,126,127,127,tap
1764136998828,0,-0.110000,-0.025000,1.044000,126,127,127,tap
1764136998849,0,-0.103000,-0.023000,1.045000,126,127,127,tap
1764136998869,363,-0.097000,-0.023000,1.033000,127,127,127,tap
1764136998890,185,-0.099000,-0.020000,1.032000,127,127,127,tap
1764136998909,11,-0.098000,-0.020000,1.039000,127,127,127,tap
1764136998931,0,-0.107000,-0.019000,1.034000,127,127,127,tap
1764136998951,0,-0.112000,-0.019000,1.044000,126,127,127,tap
1764136998972,0,-0.114000,-0.021000,1.042000,126,127,127,tap
1764136998993,0,-0.115000,-0.021000,1.039000,126,127,127,tap
1764136999013,0,-0.110000,-0.023000,1.044000,126,127,127,tap
1764136999035,0,-0.108000,-0.022000,1.041000,126,127,127,tap
1764136999054,0,-0.110000,-0.022000,1.046000,126,127,127,tap
1764136999076,148,-0.109000,-0.024000,1.044000,126,127,127,tap
1764136999096,208,-0.105000,-0.023000,1.039000,126,127,127,tap
1764136999116,0,-0.109000,-0.023000,1.037000,126,127,127,tap
1764136999137,0,-0.111000,-0.023000,1.040000,126,127,127,tap
1764136999157,0,-0.109000,-0.025000,1.036000,126,127,126,tap
1764136999178,0,-0.109000,-0.024000,1.040000,126,127,127,tap
1764136999198,0,-0.108000,-0.023000,1.047000,126,127,127,tap
1764136999219,0,-0.108000,-0.021000,1.042000,126,127,127,tap
1764136999240,0,-0.109000,-0.020000,1.044000,127,127,127,tap
1764136999261,0,-0.113000,-0.019000,1.046000,126,127,126,tap
1764136999283,26,-0.115000,-0.021000,1.046000,126,127,126,tap
1764136999303,248,-0.116000,-0.018000,1.041000,126,127,126,tap
1764136999322,0,-0.114000,-0.020000,1.039000,126,127,126,tap
1764136999342,0,-0.116000,-0.025000,1.038000,126,127,126,tap
1764136999363,0,-0.109000,-0.026000,1.030000,126,127,127,tap
1764136999382,0,-0.107000,-0.021000,1.039000,126,127,127,tap
1764136999403,0,-0.107000,-0.025000,1.042000,126,127,127,tap
1764136999423,0,-0.108000,-0.026000,1.037000,127,127,127,tap
1764136999444,0,-0.109000,-0.022000,1.041000,127,127,127,tap
1764136999464,0,-0.113000,-0.019000,1.039000,126,127,127,tap
1764136999485,0,-0.135000,-0.021000,1.045000,126,127,127,tap
1764136999505,76,-0.133000,-0.021000,1.046000,126,127,127,tap
1764136999526,211,-0.128000,-0.018000,1.043000,126,127,127,tap
1764136999547,46,-0.127000,-0.022000,1.036000,126,127,127,tap
1764136999568,0,-0.129000,-0.029000,1.040000,126,127,126,tap
1764136999588,0,-0.105000,-0.026000,1.033000,126,127,127,tap
1764136999608,0,-0.107000,-0.020000,1.043000,126,127,127,tap
1764136999629,0,-0.112000,-0.025000,1.044000,126,127,126,tap
1764136999649,0,-0.113000,-0.026000,1.040000,126,127,127,tap
1764136999669,0,-0.112000,-0.020000,1.040000,127,127,127,tap
1764136999690,0,-0.112000,-0.018000,1.045000,127,127,127,tap
1764136999710,123,-0.121000,-0.024000,1.040000,127,127,126,tap
1764136999731,200,-0.118000,-0.023000,1.041000,127,127,127,tap
1764136999751,14,-0.114000,-0.024000,1.035000,126,127,127,tap
1764136999772,0,-0.120000,-0.029000,1.039000,126,127,126,tap
1764136999794,0,-0.109000,-0.026000,1.035000,126,127,126,tap
1764136999814,0,-0.110000,-0.021000,1.039000,126,127,126,tap
1764136999835,0,-0.114000,-0.022000,1.046000,126,127,126,tap
1764136999856,0,-0.114000,-0.022000,1.044000,126,127,127,tap
1764136999877,0,-0.112000,-0.020000,1.042000,126,127,127,tap
1764136999897,0,-0.151000,-0.025000,1.061000,127,127,127,tap
1764136999917,174,-0.146000,-0.025000,1.064000,126,127,127,tap
1764136999937,4,-0.147000,-0.026000,1.065000,126,127,127,tap
1764136999958,0,-0.147000,-0.029000,1.069000,126,127,127,tap
1764136999978,0,-0.110000,-0.021000,1.053000,126,127,127,tap
1764136999999,0,-0.113000,-0.020000,1.046000,126,127,127,tap
1764137000020,0,-0.112000,-0.024000,1.038000,126,127,127,tap
1764137000041,0,-0.113000,-0.023000,1.044000,126,127,127,tap
1764137000062,0,-0.110000,-0.019000,1.041000,126,127,127,tap
1764137000084,0,-0.109000,-0.021000,1.044000,126,127,127,tap
1764137000103,0,-0.103000,-0.021000,1.059000,126,127,126,tap
1764137000124,219,-0.100000,-0.017000,1.055000,126,127,126,tap
1764137000145,99,-0.103000,-0.017000,1.068000,126,127,126,tap
1764137000165,0,-0.105000,-0.018000,1.058000,126,127,126,tap
1764137000186,0,-0.107000,-0.022000,1.054000,126,127,126,tap
1764137000207,0,-0.112000,-0.022000,1.045000,126,127,126,tap
1764137000228,0,-0.111000,-0.024000,1.036000,126,127,126,tap
1764137000249,0,-0.109000,-0.026000,1.041000,126,127,126,tap
1764137000271,0,-0.108000,-0.021000,1.042000,126,127,126,tap
1764137000292,0,-0.107000,-0.019000,1.045000,126,127,126,tap
1764137000312,0,-0.108000,-0.022000,1.042000,126,127,127,tap
1764137000333,0,-0.110000,-0.021000,1.041000,126,127,126,tap
1764137000353,236,-0.099000,-0.018000,1.042000,126,127,127,tap
1764137000374,71,-0.096000,-0.016000,1.049000,126,127,127,tap
1764137000394,1,-0.099000,-0.017000,1.053000,126,127,126,tap
1764137000417,0,-0.096000,-0.021000,1.049000,126,127,127,tap
1764137000438,0,-0.108000,-0.021000,1.051000,126,127,126,tap
1764137000459,0,-0.109000,-0.024000,1.044000,126,127,127,tap
1764137000481,0,-0.108000,-0.026000,1.037000,126,127,127,tap
1764137000501,0,-0.109000,-0.025000,1.043000,127,127,127,tap
1764137000522,0,-0.107000,-0.020000,1.045000,126,127,127,tap
1764137000542,0,-0.108000,-0.020000,1.046000,126,127,127,tap
1764137000562,252,-0.103000,-0.023000,1.034000,126,127,127,tap
1764137000583,82,-0.102000,-0.021000,1.038000,126,127,127,tap
1764137000603,14,-0.102000,-0.018000,1.048000,126,127,127,tap
1764137000624,0,-0.103000,-0.025000,1.043000,126,127,126,tap
1764137000645,0,-0.109000,-0.023000,1.052000,126,127,127,tap
1764137000666,0,-0.109000,-0.022000,1.049000,126,127,126,tap
1764137000687,0,-0.109000,-0.025000,1.042000,126,127,126,tap
1764137000708,0,-0.109000,-0.025000,1.044000,126,127,126,tap
1764137000729,0,-0.109000,-0.020000,1.043000,126,127,127,tap
1764137000750,0,-0.110000,-0.019000,1.046000,126,127,126,tap
1764137016792,6,-0.108000,-0.021000,1.046000,126,127,126,rest_head
1764137016812,0,-0.107000,-0.022000,1.048000,126,127,127,rest_head
1764137016832,0,-0.105000,-0.022000,1.046000,126,127,127,rest_head
1764137016853,0,-0.104000,-0.023000,1.045000,126,127,127,rest_head
1764137016875,0,-0.104000,-0.023000,1.042000,126,127,127,rest_head
1764137016895,0,-0.105000,-0.023000,1.043000,126,127,127,rest_head
1764137016916,0,-0.106000,-0.021000,1.042000,126,127,127,rest_head
1764137016936,0,-0.109000,-0.020000,1.044000,126,127,126,rest_head
1764137016956,0,-0.112000,-0.019000,1.044000,126,127,126,rest_head
1764137016977,0,-0.114000,-0.020000,1.043000,126,127,126,rest_head
1764137016997,0,-0.112000,-0.022000,1.042000,126,127,127,rest_head
1764137017017,0,-0.109000,-0.023000,1.043000,126,127,127,rest_head
1764137017038,0,-0.106000,-0.024000,1.043000,126,127,127,rest_head
1764137017059,0,-0.104000,-0.024000,1.044000,126,127,127,rest_head
1764137017080,0,-0.104000,-0.024000,1.046000,126,127,127,rest_head
1764137017100,0,-0.105000,-0.024000,1.045000,126,127,127,rest_head
1764137017120,0,-0.106000,-0.024000,1.044000,126,127,127,rest_head
1764137017141,0,-0.109000,-0.023000,1.043000,126,127,127,rest_head
1764137017161,0,-0.111000,-0.021000,1.043000,126,127,127,rest_head
1764137017181,0,-0.112000,-0.020000,1.042000,126,127,127,rest_head
1764137017202,0,-0.112000,-0.020000,1.042000,126,127,127,rest_head
1764137017222,63,-0.111000,-0.021000,1.042000,126,127,126,rest_head
1764137017243,128,-0.109000,-0.021000,1.043000,126,127,127,rest_head
1764137017263,182,-0.106000,-0.022000,1.043000,126,127,126,rest_head
1764137017284,234,-0.105000,-0.023000,1.043000,126,127,127,rest_head
1764137017304,267,-0.107000,-0.022000,1.044000,126,127,127,rest_head
1764137017324,306,-0.106000,-0.022000,1.045000,126,127,126,rest_head
1764137017344,330,-0.108000,-0.024000,1.046000,126,127,127,rest_head
1764137017366,340,-0.110000,-0.024000,1.045000,126,127,127,rest_head
1764137017387,351,-0.110000,-0.023000,1.045000,126,127,126,rest_head
1764137017407,363,-0.108000,-0.022000,1.046000,126,127,126,rest_head
1764137017427,373,-0.110000,-0.021000,1.045000,126,127,127,rest_head
1764137017448,381,-0.112000,-0.021000,1.044000,126,127,126,rest_head
1764137017468,387,-0.112000,-0.021000,1.045000,126,127,127,rest_head
1764137017489,398,-0.112000,-0.021000,1.045000,126,127,127,rest_head
1764137017509,403,-0.112000,-0.022000,1.045000,126,127,127,rest_head
1764137017530,405,-0.109000,-0.023000,1.044000,126,127,127,rest_head
1764137017550,409,-0.107000,-0.023000,1.044000,126,127,127,rest_head
1764137017570,414,-0.106000,-0.023000,1.045000,126,127,127,rest_head
1764137017592,418,-0.105000,-0.023000,1.043000,126,127,127,rest_head
1764137017612,421,-0.107000,-0.023000,1.043000,126,127,127,rest_head
1764137017632,423,-0.108000,-0.023000,1.043000,126,127,127,rest_head
1764137017653,426,-0.109000,-0.023000,1.043000,126,127,127,rest_head
1764137017673,429,-0.109000,-0.023000,1.045000,126,127,127,rest_head
1764137017694,431,-0.109000,-0.023000,1.046000,126,127,127,rest_head
1764137017715,434,-0.109000,-0.023000,1.045000,126,127,127,rest_head
1764137017735,436,-0.108000,-0.023000,1.045000,127,127,127,rest_head
1764137017755,439,-0.109000,-0.022000,1.045000,127,127,126,rest_head
1764137017775,441,-0.110000,-0.022000,1.044000,127,127,126,rest_head
1764137017796,443,-0.112000,-0.020000,1.043000,127,127,126,rest_head
1764137017816,445,-0.113000,-0.019000,1.043000,127,127,126,rest_head
1764137017838,447,-0.114000,-0.019000,1.044000,126,127,126,rest_head
1764137017859,448,-0.114000,-0.020000,1.043000,126,127,127,rest_head
1764137017880,449,-0.113000,-0.021000,1.043000,126,127,127,rest_head
1764137017900,451,-0.110000,-0.023000,1.045000,126,127,126,rest_head
1764137017920,451,-0.109000,-0.024000,1.045000,126,127,127,rest_head
1764137017941,451,-0.109000,-0.024000,1.045000,126,127,127,rest_head
1764137017961,453,-0.110000,-0.023000,1.045000,126,127,127,rest_head
1764137017981,453,-0.110000,-0.022000,1.047000,126,127,127,rest_head
1764137018001,453,-0.111000,-0.021000,1.046000,126,127,127,rest_head
1764137018021,454,-0.112000,-0.021000,1.043000,126,127,127,rest_head
1764137018041,454,-0.112000,-0.021000,1.044000,126,127,127,rest_head
1764137018062,454,-0.110000,-0.022000,1.043000,126,127,127,rest_head
1764137018082,455,-0.109000,-0.023000,1.045000,126,127,127,rest_head
1764137018103,457,-0.108000,-0.023000,1.045000,126,127,127,rest_head
1764137018123,458,-0.109000,-0.022000,1.045000,126,127,126,rest_head
1764137018144,459,-0.110000,-0.022000,1.044000,126,127,126,rest_head
1764137018165,460,-0.110000,-0.022000,1.044000,126,127,126,rest_head
1764137018186,460,-0.111000,-0.021000,1.043000,126,127,127,rest_head
1764137018206,460,-0.108000,-0.019000,1.044000,126,127,127,rest_head
1764137018226,460,-0.108000,-0.020000,1.044000,126,127,127,rest_head
1764137018247,459,-0.107000,-0.020000,1.044000,126,127,127,rest_head
1764137018267,461,-0.106000,-0.020000,1.043000,126,127,127,rest_head
1764137018287,461,-0.106000,-0.021000,1.044000,126,127,127,rest_head
1764137018308,462,-0.110000,-0.022000,1.044000,126,127,127,rest_head
1764137018329,462,-0.111000,-0.022000,1.044000,126,127,126,rest_head
1764137018351,462,-0.112000,-0.022000,1.044000,126,127,126,rest_head
1764137018372,461,-0.112000,-0.021000,1.044000,126,127,126,rest_head
1764137018393,461,-0.111000,-0.022000,1.043000,126,127,126,rest_head
1764137018415,462,-0.111000,-0.023000,1.042000,126,127,126,rest_head
1764137018435,463,-0.110000,-0.023000,1.043000,126,127,126,rest_head
1764137018455,463,-0.110000,-0.022000,1.043000,126,127,126,rest_head
1764137018476,463,-0.110000,-0.022000,1.044000,126,127,127,rest_head
1764137018496,462,-0.110000,-0.022000,1.044000,126,127,126,rest_head
1764137018517,463,-0.111000,-0.021000,1.043000,126,127,126,rest_head
1764137018537,464,-0.110000,-0.021000,1.042000,126,127,126,rest_head
1764137018559,465,-0.111000,-0.022000,1.042000,126,127,126,rest_head
1764137018579,465,-0.110000,-0.022000,1.042000,126,127,127,rest_head
1764137018600,465,-0.110000,-0.022000,1.042000,126,127,127,rest_head
1764137018621,466,-0.110000,-0.022000,1.042000,126,127,127,rest_head
1764137018643,466,-0.111000,-0.021000,1.042000,126,127,127,rest_head
1764137018663,467,-0.111000,-0.020000,1.043000,126,127,127,rest_head
1764137018684,467,-0.112000,-0.021000,1.043000,126,127,127,rest_head
1764137018704,468,-0.111000,-0.020000,1.043000,126,127,127,rest_head
1764137018724,467,-0.111000,-0.021000,1.043000,126,127,127,rest_head
1764137018745,468,-0.109000,-0.021000,1.044000,126,127,126,rest_head
1764137018766,468,-0.108000,-0.022000,1.043000,126,127,126,rest_head
1764137018787,468,-0.108000,-0.022000,1.043000,126,127,126,rest_head
1764137018808,468,-0.108000,-0.023000,1.043000,126,127,126,rest_head
1764137018828,468,-0.109000,-0.022000,1.043000,126,127,127,rest_head
1764137018849,468,-0.110000,-0.022000,1.044000,126,127,127,rest_head
1764137018870,469,-0.110000,-0.023000,1.043000,126,127,127,rest_head
1764137018890,469,-0.111000,-0.023000,1.044000,126,127,127,rest_head
1764137018911,468,-0.112000,-0.023000,1.045000,126,127,127,rest_head
1764137018931,468,-0.111000,-0.024000,1.043000,126,127,126,rest_head
1764137018951,469,-0.111000,-0.023000,1.043000,126,127,127,rest_head
1764137018971,469,-0.112000,-0.023000,1.043000,126,127,127,rest_head
1764137018992,469,-0.112000,-0.023000,1.042000,126,127,127,rest_head
1764137019012,470,-0.111000,-0.023000,1.041000,126,127,127,rest_head
1764137019034,469,-0.111000,-0.023000,1.042000,126,127,126,rest_head
1764137019054,469,-0.110000,-0.021000,1.042000,126,127,126,rest_head
1764137019075,469,-0.108000,-0.021000,1.044000,126,127,126,rest_head
1764137019097,469,-0.108000,-0.021000,1.044000,126,127,126,rest_head
1764137019118,469,-0.108000,-0.020000,1.044000,126,127,126,rest_head
1764137019138,469,-0.109000,-0.020000,1.044000,126,127,126,rest_head
1764137019158,468,-0.110000,-0.021000,1.045000,126,127,126,rest_head
1764137019178,468,-0.111000,-0.021000,1.044000,126,127,126,rest_head
1764137019197,467,-0.112000,-0.022000,1.043000,126,127,126,rest_head
1764137019218,467,-0.112000,-0.023000,1.043000,126,127,126,rest_head
1764137019238,466,-0.111000,-0.023000,1.043000,126,127,126,rest_head
1764137019258,467,-0.110000,-0.023000,1.043000,126,127,127,rest_head
1764137019279,467,-0.110000,-0.023000,1.044000,126,127,127,rest_head
1764137019299,465,-0.110000,-0.021000,1.043000,126,127,127,rest_head
1764137019321,466,-0.111000,-0.021000,1.043000,126,127,127,rest_head
1764137019342,466,-0.111000,-0.020000,1.043000,126,127,126,rest_head
1764137019363,465,-0.110000,-0.020000,1.042000,126,127,127,rest_head
1764137019385,466,-0.110000,-0.020000,1.042000,126,127,127,rest_head
1764137019406,466,-0.109000,-0.022000,1.043000,126,127,127,rest_head
1764137019427,466,-0.108000,-0.021000,1.043000,126,127,127,rest_head
1764137019447,465,-0.109000,-0.022000,1.042000,126,127,127,rest_head
1764137019467,465,-0.110000,-0.021000,1.044000,126,127,127,rest_head
1764137019489,464,-0.110000,-0.020000,1.044000,126,127,127,rest_head
1764137019509,465,-0.110000,-0.021000,1.044000,126,127,126,rest_head
1764137019531,465,-0.110000,-0.021000,1.044000,126,127,126,rest_head
1764137019551,465,-0.110000,-0.021000,1.043000,126,127,126,rest_head
1764137019572,466,-0.110000,-0.021000,1.043000,126,127,126,rest_head
1764137019594,467,-0.109000,-0.021000,1.043000,126,127,126,rest_head
1764137019615,467,-0.109000,-0.021000,1.043000,126,127,126,rest_head
1764137019635,468,-0.109000,-0.021000,1.044000,126,127,127,rest_head
1764137019656,469,-0.109000,-0.020000,1.045000,126,127,127,rest_head
1764137019676,468,-0.110000,-0.021000,1.044000,126,127,127,rest_head
1764137019696,468,-0.111000,-0.022000,1.044000,126,127,126,rest_head
1764137019717,469,-0.110000,-0.022000,1.044000,126,127,126,rest_head
1764137019737,469,-0.110000,-0.022000,1.044000,126,127,127,rest_head
1764137019758,470,-0.109000,-0.023000,1.044000,126,127,127,rest_head
1764137019779,470,-0.109000,-0.022000,1.044000,126,127,127,rest_head
1764137019799,469,-0.110000,-0.023000,1.044000,126,127,127,rest_head
1764137019820,468,-0.110000,-0.023000,1.044000,126,127,127,rest_head
1764137019841,467,-0.111000,-0.024000,1.042000,126,127,127,rest_head
1764137019861,466,-0.110000,-0.023000,1.042000,126,127,127,rest_head
1764137019881,466,-0.110000,-0.023000,1.042000,126,127,127,rest_head
1764137019902,465,-0.109000,-0.023000,1.043000,126,127,127,rest_head
1764137019922,465,-0.109000,-0.022000,1.043000,126,127,126,rest_head
1764137019944,465,-0.109000,-0.022000,1.043000,126,127,126,rest_head
1764137019966,464,-0.110000,-0.021000,1.042000,126,127,126,rest_head
1764137019987,464,-0.110000,-0.021000,1.042000,126,127,126,rest_head
1764137020007,464,-0.110000,-0.022000,1.042000,126,127,127,rest_head
1764137020029,462,-0.110000,-0.021000,1.042000,126,127,127,rest_head
1764137020050,460,-0.110000,-0.021000,1.043000,126,127,127,rest_head
1764137020070,459,-0.109000,-0.021000,1.042000,126,127,127,rest_head
1764137020090,459,-0.109000,-0.021000,1.042000,126,127,127,rest_head
1764137020110,460,-0.109000,-0.021000,1.042000,126,127,127,rest_head
1764137020131,460,-0.109000,-0.021000,1.043000,126,127,127,rest_head
1764137020152,459,-0.110000,-0.021000,1.043000,126,127,127,rest_head
1764137020172,460,-0.110000,-0.021000,1.044000,126,127,127,rest_head
1764137020193,460,-0.111000,-0.020000,1.043000,126,127,127,rest_head
1764137020214,459,-0.110000,-0.019000,1.043000,126,127,127,rest_head
1764137020234,460,-0.110000,-0.019000,1.043000,126,127,127,rest_head
1764137020256,460,-0.109000,-0.020000,1.043000,126,127,127,rest_head
1764137020277,459,-0.108000,-0.022000,1.043000,126,127,127,rest_head
1764137020300,459,-0.108000,-0.022000,1.044000,126,127,127,rest_head
1764137020320,458,-0.108000,-0.022000,1.044000,126,127,127,rest_head
1764137020340,458,-0.109000,-0.021000,1.044000,126,127,127,rest_head
1764137020360,458,-0.110000,-0.021000,1.043000,126,127,127,rest_head
1764137020381,458,-0.111000,-0.021000,1.043000,126,127,127,rest_head
1764137020401,458,-0.111000,-0.022000,1.042000,126,127,126,rest_head
1764137020421,459,-0.111000,-0.023000,1.043000,126,127,126,rest_head
1764137020442,459,-0.111000,-0.022000,1.044000,126,127,126,rest_head
1764137020463,460,-0.111000,-0.022000,1.043000,126,127,126,rest_head
1764137020484,462,-0.111000,-0.022000,1.042000,126,127,127,rest_head
1764137020505,462,-0.111000,-0.022000,1.042000,126,127,127,rest_head
1764137020525,464,-0.111000,-0.022000,1.043000,126,127,127,rest_head
1764137020545,464,-0.110000,-0.021000,1.043000,126,127,127,rest_head
1764137020566,465,-0.111000,-0.021000,1.043000,126,127,127,rest_head
1764137020586,469,-0.111000,-0.021000,1.044000,126,127,126,rest_head
1764137020608,470,-0.111000,-0.020000,1.044000,126,127,127,rest_head
1764137020630,471,-0.110000,-0.020000,1.043000,126,127,127,rest_head
1764137020651,471,-0.110000,-0.021000,1.043000,126,127,127,rest_head
1764137020672,469,-0.110000,-0.022000,1.042000,126,127,127,rest_head
1764137020694,465,-0.110000,-0.021000,1.043000,126,127,127,rest_head
1764137020716,464,-0.110000,-0.020000,1.043000,126,127,127,rest_head
1764137020738,465,-0.111000,-0.020000,1.044000,126,127,126,rest_head
1764137020759,463,-0.111000,-0.020000,1.044000,126,127,127,rest_head
1764137020780,460,-0.112000,-0.019000,1.043000,126,127,127,rest_head
1764137020800,460,-0.110000,-0.021000,1.043000,126,127,127,rest_head
1764137020820,459,-0.110000,-0.021000,1.043000,126,127,127,rest_head
1764137020841,460,-0.110000,-0.021000,1.042000,126,127,127,rest_head
1764137020862,461,-0.110000,-0.021000,1.043000,126,127,127,rest_head
1764137020883,460,-0.109000,-0.021000,1.043000,126,127,127,rest_head
1764137020904,458,-0.111000,-0.021000,1.043000,126,127,126,rest_head
1764137020925,458,-0.111000,-0.021000,1.042000,126,127,126,rest_head
1764137020946,457,-0.111000,-0.022000,1.043000,126,127,126,rest_head
1764137020966,454,-0.110000,-0.022000,1.042000,126,127,126,rest_head
1764137020987,454,-0.111000,-0.023000,1.042000,126,127,127,rest_head
1764137021007,454,-0.111000,-0.023000,1.042000,126,127,127,rest_head
1764137021028,456,-0.111000,-0.022000,1.043000,126,127,127,rest_head
1764137021048,456,-0.112000,-0.023000,1.042000,126,127,127,rest_head
1764137021069,456,-0.113000,-0.022000,1.042000,126,127,126,rest_head
1764137021090,454,-0.112000,-0.022000,1.044000,126,127,126,rest_head
1764137021111,452,-0.112000,-0.022000,1.043000,126,127,126,rest_head
1764137021133,451,-0.112000,-0.022000,1.044000,126,127,127,rest_head
1764137021153,451,-0.111000,-0.022000,1.045000,126,127,127,rest_head
1764137021173,449,-0.110000,-0.022000,1.045000,126,127,127,rest_head
1764137021193,447,-0.110000,-0.022000,1.044000,126,127,127,rest_head
1764137021214,447,-0.110000,-0.021000,1.043000,126,127,127,rest_head
1764137021235,446,-0.110000,-0.021000,1.042000,126,127,126,rest_head
1764137021256,445,-0.110000,-0.022000,1.042000,126,127,126,rest_head
1764137021278,446,-0.109000,-0.022000,1.043000,126,127,126,rest_head
1764137021299,446,-0.109000,-0.022000,1.043000,126,127,126,rest_head
1764137021322,445,-0.109000,-0.022000,1.042000,126,127,127,rest_head
1764137021343,444,-0.109000,-0.022000,1.043000,126,127,127,rest_head
1764137021364,443,-0.110000,-0.022000,1.042000,126,127,127,rest_head
1764137021384,443,-0.111000,-0.022000,1.041000,126,127,127,rest_head
1764137021405,442,-0.111000,-0.023000,1.042000,126,127,126,rest_head
1764137021426,441,-0.111000,-0.023000,1.041000,126,127,126,rest_head
1764137021446,441,-0.111000,-0.023000,1.042000,126,127,127,rest_head
1764137021466,440,-0.111000,-0.022000,1.042000,126,127,127,rest_head
1764137021486,439,-0.111000,-0.022000,1.042000,126,127,127,rest_head
1764137021510,437,-0.110000,-0.021000,1.042000,126,127,127,rest_head
1764137021533,434,-0.110000,-0.022000,1.043000,126,127,127,rest_head
1764137021553,434,-0.111000,-0.021000,1.042000,126,127,127,rest_head
1764137021573,434,-0.110000,-0.022000,1.042000,126,127,127,rest_head
1764137021594,437,-0.110000,-0.021000,1.043000,126,127,127,rest_head
1764137021615,437,-0.110000,-0.021000,1.043000,126,127,127,rest_head
1764137021637,437,-0.109000,-0.022000,1.043000,126,127,127,rest_head
1764137021658,438,-0.109000,-0.021000,1.044000,126,127,127,rest_head
1764137021679,438,-0.109000,-0.021000,1.043000,126,127,127,rest_head
1764137021700,440,-0.109000,-0.021000,1.043000,126,127,127,rest_head
1764137021721,442,-0.109000,-0.022000,1.044000,126,127,126,rest_head
1764137021742,442,-0.110000,-0.023000,1.044000,126,127,127,rest_head
1764137021762,442,-0.109000,-0.023000,1.043000,126,127,127,rest_head
1764137021782,443,-0.110000,-0.024000,1.042000,126,127,126,rest_head
1764137021803,442,-0.109000,-0.024000,1.042000,126,127,126,rest_head
1764137021823,443,-0.109000,-0.022000,1.042000,126,127,126,rest_head
1764137021843,442,-0.110000,-0.021000,1.042000,126,127,126,rest_head
1764137021864,443,-0.110000,-0.021000,1.043000,126,127,126,rest_head
1764137021885,442,-0.111000,-0.021000,1.044000,126,127,126,rest_head
1764137021905,440,-0.111000,-0.021000,1.045000,126,127,126,rest_head
1764137021926,439,-0.111000,-0.021000,1.045000,126,127,126,rest_head
1764137021947,437,-0.111000,-0.023000,1.045000,126,127,126,rest_head
1764137021970,436,-0.111000,-0.023000,1.046000,126,127,126,rest_head
1764137021991,435,-0.111000,-0.022000,1.045000,126,127,127,rest_head
1764137022012,433,-0.111000,-0.022000,1.045000,126,127,126,rest_head
1764137022034,431,-0.111000,-0.022000,1.044000,126,127,126,rest_head
1764137022054,430,-0.109000,-0.022000,1.043000,126,127,126,rest_head
1764137022074,429,-0.110000,-0.023000,1.043000,126,127,126,rest_head
1764137022095,429,-0.110000,-0.023000,1.042000,126,127,126,rest_head
1764137022117,427,-0.110000,-0.023000,1.042000,126,127,126,rest_head
1764137022138,426,-0.110000,-0.023000,1.042000,126,127,126,rest_head
1764137022159,428,-0.112000,-0.023000,1.043000,126,127,126,rest_head
1764137022179,430,-0.110000,-0.023000,1.043000,126,127,127,rest_head
1764137022201,430,-0.111000,-0.022000,1.043000,126,127,127,rest_head
1764137022220,431,-0.110000,-0.022000,1.043000,126,127,127,rest_head
1764137022241,433,-0.110000,-0.022000,1.044000,126,127,127,rest_head
1764137022261,434,-0.109000,-0.023000,1.044000,126,127,127,rest_head
1764137022282,435,-0.110000,-0.023000,1.044000,126,127,126,rest_head
1764137022302,435,-0.111000,-0.023000,1.045000,126,127,126,rest_head
1764137022323,435,-0.110000,-0.022000,1.046000,126,127,126,rest_head
1764137022344,435,-0.110000,-0.021000,1.044000,126,127,126,rest_head
1764137022364,436,-0.111000,-0.020000,1.044000,126,127,126,rest_head
1764137022385,436,-0.110000,-0.020000,1.044000,126,127,126,rest_head
1764137022408,435,-0.110000,-0.020000,1.042000,126,127,126,rest_head
1764137022429,435,-0.109000,-0.020000,1.041000,126,127,127,rest_head
1764137022449,433,-0.109000,-0.020000,1.041000,126,127,127,rest_head
1764137022470,432,-0.109000,-0.020000,1.042000,126,127,127,rest_head
1764137022490,431,-0.109000,-0.020000,1.042000,126,127,127,rest_head
1764137022511,431,-0.109000,-0.020000,1.043000,126,127,127,rest_head
1764137022531,432,-0.110000,-0.020000,1.044000,126,127,127,rest_head
1764137022552,432,-0.110000,-0.020000,1.043000,126,127,127,rest_head
1764137022572,432,-0.110000,-0.021000,1.043000,126,127,126,rest_head
1764137022594,433,-0.109000,-0.021000,1.044000,126,127,126,rest_head
1764137022614,434,-0.109000,-0.022000,1.043000,126,127,127,rest_head
1764137022634,434,-0.109000,-0.022000,1.043000,126,127,127,rest_head
1764137022655,434,-0.109000,-0.024000,1.043000,126,127,127,rest_head
1764137022676,434,-0.108000,-0.023000,1.043000,126,127,127,rest_head
1764137022696,434,-0.108000,-0.023000,1.043000,126,127,126,rest_head
1764137022716,434,-0.109000,-0.023000,1.044000,126,127,126,rest_head
1764137022736,434,-0.109000,-0.022000,1.044000,126,127,127,rest_head
1764137022757,434,-0.109000,-0.021000,1.044000,126,127,126,rest_head
1764137022778,434,-0.109000,-0.021000,1.044000,126,127,127,rest_head
1764137028241,403,-0.110000,-0.022000,1.044000,126,127,127,rest_head
1764137028263,404,-0.109000,-0.022000,1.045000,126,127,127,rest_head
1764137028283,404,-0.109000,-0.022000,1.045000,126,127,127,rest_head
1764137028304,404,-0.108000,-0.022000,1.044000,126,127,127,rest_head
1764137028324,405,-0.108000,-0.022000,1.045000,126,127,127,rest_head
1764137028345,405,-0.108000,-0.022000,1.043000,126,127,127,rest_head
1764137028365,406,-0.110000,-0.022000,1.042000,126,127,127,rest_head
1764137028385,406,-0.111000,-0.020000,1.043000,126,127,127,rest_head
1764137028405,406,-0.111000,-0.019000,1.044000,126,127,126,rest_head
1764137028426,406,-0.109000,-0.021000,1.044000,126,127,127,rest_head
1764137028446,407,-0.107000,-0.022000,1.043000,126,127,127,rest_head
1764137028468,407,-0.106000,-0.023000,1.043000,126,127,127,rest_head
1764137028490,408,-0.108000,-0.023000,1.042000,126,127,127,rest_head
1764137028511,407,-0.109000,-0.022000,1.043000,126,127,127,rest_head
1764137028531,407,-0.112000,-0.020000,1.043000,126,127,127,rest_head
1764137028552,407,-0.114000,-0.019000,1.043000,126,127,127,rest_head
1764137028573,408,-0.114000,-0.019000,1.043000,126,127,127,rest_head
1764137028594,408,-0.112000,-0.021000,1.043000,126,127,127,rest_head
1764137028614,408,-0.109000,-0.022000,1.043000,126,127,127,rest_head
1764137028635,408,-0.106000,-0.024000,1.044000,126,127,127,rest_head
1764137028656,407,-0.107000,-0.023000,1.044000,126,127,127,rest_head
1764137028677,407,-0.110000,-0.022000,1.043000,126,127,127,rest_head
1764137028698,408,-0.114000,-0.020000,1.043000,126,127,126,rest_head
1764137028719,407,-0.114000,-0.020000,1.043000,126,127,126,rest_head
1764137028740,408,-0.114000,-0.020000,1.043000,126,127,126,rest_head
1764137028761,408,-0.112000,-0.020000,1.043000,126,127,126,rest_head
1764137028782,409,-0.110000,-0.021000,1.044000,126,127,126,rest_head
1764137028803,410,-0.107000,-0.022000,1.044000,126,127,126,rest_head
1764137028824,410,-0.107000,-0.021000,1.044000,126,127,126,rest_head
1764137028845,411,-0.110000,-0.020000,1.043000,126,127,126,rest_head
1764137028865,412,-0.112000,-0.020000,1.044000,126,127,126,rest_head
1764137028886,411,-0.113000,-0.019000,1.044000,126,127,126,rest_head
1764137028907,412,-0.113000,-0.020000,1.044000,126,127,127,rest_head
1764137028928,412,-0.112000,-0.022000,1.044000,126,127,127,rest_head
1764137028949,413,-0.110000,-0.023000,1.045000,126,127,127,rest_head
1764137028970,414,-0.109000,-0.023000,1.045000,126,127,127,rest_head
1764137028990,415,-0.109000,-0.023000,1.044000,126,127,127,rest_head
1764137029010,415,-0.110000,-0.022000,1.043000,126,127,127,rest_head
1764137029030,415,-0.111000,-0.020000,1.042000,126,127,127,rest_head
1764137029050,415,-0.113000,-0.019000,1.042000,126,127,127,rest_head
1764137029070,415,-0.111000,-0.020000,1.042000,126,127,127,rest_head
1764137029090,415,-0.111000,-0.020000,1.042000,126,127,127,rest_head
1764137029111,416,-0.108000,-0.022000,1.044000,126,127,127,rest_head
1764137029131,415,-0.108000,-0.023000,1.043000,126,127,126,rest_head
1764137029152,415,-0.108000,-0.024000,1.043000,126,127,127,rest_head
1764137029172,416,-0.110000,-0.023000,1.044000,126,127,127,rest_head
1764137029194,416,-0.112000,-0.023000,1.044000,126,127,127,rest_head
1764137029214,415,-0.112000,-0.022000,1.044000,126,127,127,rest_head
1764137029235,415,-0.111000,-0.021000,1.044000,126,127,127,rest_head
1764137029255,415,-0.110000,-0.021000,1.044000,126,127,127,rest_head
1764137029275,415,-0.109000,-0.021000,1.043000,126,127,127,rest_head
1764137029295,415,-0.108000,-0.022000,1.044000,126,127,127,rest_head
1764137029315,415,-0.108000,-0.022000,1.043000,126,127,127,rest_head
1764137029335,414,-0.110000,-0.022000,1.042000,126,127,127,rest_head
1764137029356,415,-0.111000,-0.021000,1.042000,126,127,126,rest_head
1764137029376,414,-0.112000,-0.021000,1.042000,126,127,127,rest_head
1764137029397,415,-0.112000,-0.021000,1.041000,126,127,127,rest_head
1764137029416,415,-0.110000,-0.020000,1.042000,126,127,127,rest_head
1764137029436,415,-0.110000,-0.022000,1.042000,126,127,127,rest_head
1764137029457,416,-0.110000,-0.022000,1.043000,126,127,127,rest_head
1764137029478,415,-0.110000,-0.021000,1.043000,126,127,127,rest_head
1764137029499,415,-0.111000,-0.021000,1.043000,126,127,127,rest_head
1764137029520,414,-0.112000,-0.022000,1.043000,126,127,127,rest_head
1764137029541,414,-0.112000,-0.021000,1.043000,126,127,127,rest_head
1764137029561,415,-0.111000,-0.022000,1.044000,126,127,127,rest_head
1764137029582,415,-0.111000,-0.023000,1.044000,126,127,127,rest_head
1764137029602,417,-0.110000,-0.023000,1.044000,126,127,127,rest_head
1764137029622,418,-0.109000,-0.023000,1.045000,126,127,127,rest_head
1764137029643,418,-0.109000,-0.023000,1.044000,126,127,127,rest_head
1764137029664,418,-0.110000,-0.022000,1.044000,126,127,127,rest_head
1764137029685,418,-0.110000,-0.021000,1.044000,126,127,127,rest_head
1764137029706,417,-0.111000,-0.022000,1.044000,126,127,127,rest_head
1764137029727,418,-0.111000,-0.022000,1.044000,126,127,127,rest_head
1764137029748,416,-0.110000,-0.022000,1.043000,126,127,127,rest_head
1764137029770,414,-0.110000,-0.023000,1.043000,126,127,126,rest_head
1764137029791,407,-0.110000,-0.023000,1.043000,126,127,126,rest_head
1764137029810,405,-0.110000,-0.023000,1.044000,126,127,126,rest_head
1764137029830,402,-0.110000,-0.023000,1.043000,126,127,126,rest_head
1764137029850,402,-0.110000,-0.022000,1.043000,126,127,126,rest_head
1764137029870,401,-0.111000,-0.022000,1.043000,126,127,126,rest_head
1764137029890,403,-0.110000,-0.022000,1.042000,126,127,127,rest_head
1764137029911,403,-0.110000,-0.023000,1.043000,126,127,127,rest_head
1764137029934,403,-0.110000,-0.023000,1.043000,126,127,127,rest_head
1764137029955,403,-0.111000,-0.023000,1.043000,126,127,127,rest_head
1764137029976,403,-0.110000,-0.023000,1.044000,126,127,127,rest_head
1764137029997,403,-0.110000,-0.022000,1.043000,126,127,126,rest_head
1764137030017,405,-0.111000,-0.021000,1.043000,126,127,127,rest_head
1764137030038,404,-0.110000,-0.021000,1.043000,126,127,126,rest_head
1764137030059,404,-0.110000,-0.022000,1.043000,126,127,126,rest_head
1764137030080,406,-0.109000,-0.021000,1.042000,126,127,127,rest_head
1764137030100,407,-0.108000,-0.022000,1.043000,126,127,127,rest_head
1764137030121,407,-0.110000,-0.022000,1.042000,126,127,127,rest_head
1764137030142,403,-0.110000,-0.023000,1.041000,126,127,126,rest_head
1764137030163,402,-0.110000,-0.024000,1.042000,126,127,126,rest_head
1764137030184,402,-0.111000,-0.023000,1.042000,126,127,126,rest_head
1764137030204,401,-0.111000,-0.023000,1.042000,126,127,126,rest_head
1764137030225,401,-0.110000,-0.023000,1.043000,126,127,126,rest_head
1764137030245,401,-0.110000,-0.023000,1.044000,126,127,126,rest_head
1764137030265,403,-0.109000,-0.023000,1.044000,126,127,126,rest_head
1764137030286,403,-0.109000,-0.023000,1.043000,126,127,126,rest_head
1764137030306,403,-0.109000,-0.023000,1.043000,126,127,127,rest_head
1764137030327,403,-0.109000,-0.023000,1.043000,126,127,126,rest_head
1764137030347,403,-0.110000,-0.022000,1.042000,126,127,126,rest_head
1764137030367,401,-0.111000,-0.022000,1.042000,126,127,126,rest_head
1764137030389,398,-0.110000,-0.021000,1.042000,126,127,126,rest_head
1764137030410,392,-0.110000,-0.021000,1.042000,126,127,126,rest_head
1764137030432,389,-0.109000,-0.022000,1.043000,126,127,126,rest_head
1764137030452,385,-0.109000,-0.023000,1.043000,126,127,126,rest_head
1764137030473,384,-0.110000,-0.022000,1.044000,126,127,127,rest_head
1764137030493,385,-0.111000,-0.022000,1.044000,126,127,126,rest_head
1764137030514,385,-0.111000,-0.022000,1.044000,126,127,126,rest_head
1764137030534,386,-0.112000,-0.021000,1.043000,126,127,126,rest_head
1764137030555,389,-0.110000,-0.021000,1.042000,126,127,126,rest_head
1764137030575,390,-0.110000,-0.022000,1.042000,126,127,127,rest_head
1764137030595,391,-0.110000,-0.022000,1.042000,126,127,127,rest_head
1764137030616,390,-0.110000,-0.021000,1.042000,126,127,127,rest_head
1764137030637,390,-0.110000,-0.022000,1.042000,126,127,126,rest_head
1764137030658,388,-0.110000,-0.021000,1.042000,126,127,126,rest_head
1764137030679,388,-0.110000,-0.022000,1.041000,126,127,126,rest_head
1764137030700,387,-0.110000,-0.023000,1.042000,126,127,126,rest_head
1764137030720,387,-0.109000,-0.023000,1.042000,126,127,126,rest_head
1764137030741,387,-0.109000,-0.023000,1.042000,126,127,126,rest_head
1764137030761,387,-0.109000,-0.024000,1.043000,126,127,126,rest_head
1764137030781,388,-0.110000,-0.023000,1.043000,126,127,126,rest_head
1764137030802,389,-0.110000,-0.022000,1.043000,126,127,126,rest_head
1764137030822,390,-0.111000,-0.022000,1.043000,126,127,126,rest_head
1764137030843,392,-0.111000,-0.022000,1.042000,126,127,127,rest_head
1764137030863,392,-0.111000,-0.021000,1.042000,126,127,127,rest_head
1764137030884,391,-0.109000,-0.021000,1.043000,126,127,127,rest_head
1764137030905,392,-0.109000,-0.022000,1.044000,126,127,127,rest_head
1764137030925,392,-0.109000,-0.022000,1.044000,126,127,127,rest_head
1764137030946,392,-0.109000,-0.022000,1.045000,126,127,127,rest_head
1764137030966,392,-0.110000,-0.023000,1.044000,126,127,126,rest_head
1764137030987,392,-0.111000,-0.022000,1.043000,126,127,126,rest_head
1764137031007,394,-0.111000,-0.021000,1.044000,126,127,126,rest_head
1764137031028,394,-0.111000,-0.020000,1.044000,126,127,126,rest_head
1764137031048,395,-0.110000,-0.020000,1.044000,126,127,127,rest_head
1764137031068,395,-0.110000,-0.020000,1.044000,126,127,127,rest_head
1764137031088,395,-0.110000,-0.021000,1.044000,126,127,127,rest_head
1764137031109,395,-0.110000,-0.022000,1.044000,126,127,127,rest_head
1764137031129,395,-0.110000,-0.022000,1.044000,126,127,127,rest_head
1764137031150,392,-0.110000,-0.022000,1.043000,126,127,127,rest_head
1764137031171,387,-0.109000,-0.022000,1.042000,126,127,127,rest_head
1764137031192,387,-0.109000,-0.022000,1.043000,126,127,127,rest_head
1764137031213,387,-0.109000,-0.021000,1.043000,126,127,127,rest_head
1764137031238,387,-0.110000,-0.021000,1.043000,126,127,127,rest_head
1764137031258,387,-0.111000,-0.022000,1.042000,126,127,127,rest_head
1764137031278,387,-0.111000,-0.023000,1.043000,126,127,127,rest_head
1764137031299,387,-0.111000,-0.023000,1.043000,126,127,127,rest_head
1764137031320,388,-0.112000,-0.023000,1.042000,126,127,127,rest_head
1764137031341,389,-0.112000,-0.023000,1.043000,126,127,127,rest_head
1764137031362,389,-0.111000,-0.022000,1.043000,126,127,126,rest_head
1764137031382,391,-0.111000,-0.022000,1.044000,126,127,126,rest_head
1764137031403,392,-0.111000,-0.021000,1.043000,126,127,127,rest_head
1764137031424,393,-0.110000,-0.022000,1.044000,126,127,126,rest_head
1764137031445,393,-0.110000,-0.021000,1.044000,126,127,127,rest_head
1764137031465,394,-0.110000,-0.021000,1.044000,126,127,126,rest_head
1764137031485,394,-0.111000,-0.021000,1.043000,126,127,126,rest_head
1764137031505,395,-0.111000,-0.021000,1.044000,126,127,127,rest_head
1764137031525,395,-0.111000,-0.021000,1.044000,126,127,127,rest_head
1764137031545,395,-0.110000,-0.022000,1.045000,126,127,127,rest_head
1764137031566,395,-0.109000,-0.023000,1.044000,126,127,127,rest_head
1764137031586,397,-0.109000,-0.022000,1.045000,126,127,127,rest_head
1764137031607,396,-0.109000,-0.022000,1.044000,126,127,127,rest_head
1764137031629,397,-0.109000,-0.022000,1.043000,126,127,127,rest_head
1764137031650,397,-0.111000,-0.021000,1.042000,126,127,127,rest_head
1764137031670,396,-0.112000,-0.020000,1.043000,126,127,127,rest_head
1764137031691,396,-0.113000,-0.020000,1.043000,126,127,127,rest_head
1764137031711,397,-0.112000,-0.019000,1.045000,126,127,127,rest_head
1764137031732,396,-0.111000,-0.020000,1.044000,126,127,127,rest_head
1764137031752,396,-0.109000,-0.021000,1.044000,126,127,127,rest_head
1764137031773,395,-0.108000,-0.021000,1.044000,126,127,127,rest_head
1764137031794,393,-0.108000,-0.022000,1.043000,126,127,127,rest_head
1764137031815,395,-0.110000,-0.021000,1.044000,126,127,127,rest_head
1764137031836,396,-0.112000,-0.020000,1.043000,126,127,127,rest_head
1764137031857,399,-0.113000,-0.020000,1.043000,126,127,127,rest_head
1764137031878,400,-0.113000,-0.021000,1.043000,126,127,127,rest_head
1764137031898,401,-0.113000,-0.021000,1.042000,126,127,127,rest_head
1764137031918,400,-0.111000,-0.021000,1.043000,126,127,127,rest_head
1764137031939,399,-0.110000,-0.023000,1.043000,126,127,127,rest_head
1764137031959,395,-0.110000,-0.022000,1.043000,126,127,127,rest_head
1764137031980,392,-0.109000,-0.022000,1.044000,126,127,127,rest_head
1764137032000,390,-0.110000,-0.022000,1.043000,126,127,127,rest_head
1764137032020,386,-0.110000,-0.021000,1.043000,126,127,127,rest_head
1764137032041,385,-0.109000,-0.021000,1.044000,126,127,127,rest_head
1764137032062,384,-0.108000,-0.022000,1.044000,126,127,127,rest_head
1764137032083,386,-0.108000,-0.022000,1.043000,126,127,127,rest_head
1764137032105,387,-0.108000,-0.021000,1.043000,126,127,127,rest_head
1764137032126,388,-0.109000,-0.021000,1.043000,126,127,127,rest_head
1764137032146,390,-0.109000,-0.021000,1.042000,126,127,127,rest_head
1764137032166,392,-0.110000,-0.020000,1.043000,126,127,127,rest_head
1764137032186,397,-0.112000,-0.019000,1.043000,126,127,127,rest_head
1764137032207,399,-0.113000,-0.020000,1.043000,126,127,127,rest_head
1764137032228,399,-0.111000,-0.020000,1.044000,126,127,127,rest_head
1764137032248,399,-0.111000,-0.021000,1.044000,126,127,127,rest_head
1764137032269,399,-0.109000,-0.022000,1.044000,126,127,126,rest_head
1764137032291,399,-0.108000,-0.021000,1.044000,126,127,127,rest_head
1764137032312,400,-0.110000,-0.021000,1.043000,126,127,126,rest_head
1764137032334,400,-0.109000,-0.021000,1.043000,126,127,126,rest_head
1764137032354,400,-0.111000,-0.021000,1.044000,126,127,126,rest_head
1764137032374,401,-0.111000,-0.021000,1.044000,126,127,126,rest_head
1764137032396,402,-0.110000,-0.021000,1.044000,126,127,126,rest_head
1764137032416,402,-0.109000,-0.021000,1.044000,126,127,127,rest_head
1764137032436,403,-0.109000,-0.021000,1.044000,126,127,127,rest_head
1764137032457,403,-0.110000,-0.021000,1.044000,126,127,127,rest_head
1764137032477,404,-0.110000,-0.020000,1.043000,126,127,127,rest_head
1764137032498,405,-0.110000,-0.021000,1.043000,126,127,127,rest_head
1764137032519,405,-0.109000,-0.021000,1.043000,126,127,126,rest_head
1764137032540,405,-0.108000,-0.021000,1.043000,126,127,126,rest_head
1764137032561,406,-0.108000,-0.022000,1.043000,126,127,126,rest_head
1764137032581,406,-0.109000,-0.023000,1.043000,126,127,126,rest_head
1764137032601,406,-0.109000,-0.023000,1.043000,126,127,126,rest_head
1764137032621,406,-0.110000,-0.023000,1.043000,126,127,126,rest_head
1764137032641,407,-0.110000,-0.023000,1.042000,126,127,126,rest_head
1764137032662,407,-0.111000,-0.022000,1.042000,126,127,126,rest_head
1764137032683,407,-0.111000,-0.021000,1.042000,126,127,126,rest_head
1764137032703,407,-0.110000,-0.022000,1.043000,126,127,126,rest_head
1764137032724,408,-0.111000,-0.021000,1.042000,126,127,126,rest_head
1764137032744,407,-0.109000,-0.022000,1.043000,126,127,126,rest_head
1764137032765,408,-0.109000,-0.022000,1.043000,126,127,126,rest_head
1764137032786,408,-0.109000,-0.020000,1.043000,126,127,127,rest_head
1764137032807,409,-0.109000,-0.021000,1.044000,126,127,127,rest_head
1764137032828,409,-0.110000,-0.021000,1.044000,126,127,127,rest_head
1764137032849,409,-0.110000,-0.021000,1.044000,126,127,127,rest_head
1764137032869,410,-0.110000,-0.022000,1.043000,126,127,127,rest_head
1764137032890,410,-0.110000,-0.022000,1.043000,126,127,126,rest_head
1764137032910,410,-0.109000,-0.022000,1.042000,126,127,127,rest_head
1764137032931,412,-0.109000,-0.022000,1.042000,126,127,127,rest_head
1764137032951,411,-0.109000,-0.021000,1.042000,126,127,127,rest_head
1764137032972,411,-0.109000,-0.021000,1.042000,126,127,127,rest_head
1764137032991,411,-0.109000,-0.022000,1.042000,126,127,126,rest_head
1764137033012,411,-0.109000,-0.022000,1.042000,126,127,127,rest_head
1764137033033,412,-0.108000,-0.021000,1.042000,126,127,127,rest_head
1764137033054,412,-0.109000,-0.022000,1.043000,126,127,126,rest_head
1764137033075,411,-0.108000,-0.023000,1.043000,126,127,127,rest_head
1764137033096,411,-0.109000,-0.022000,1.043000,126,127,127,rest_head
1764137033116,411,-0.110000,-0.023000,1.043000,126,127,127,rest_head
1764137033137,411,-0.112000,-0.023000,1.043000,126,127,127,rest_head
1764137033157,412,-0.112000,-0.023000,1.042000,126,127,127,rest_head
1764137033178,412,-0.113000,-0.023000,1.042000,126,127,127,rest_head
1764137033198,411,-0.112000,-0.022000,1.042000,126,127,126,rest_head
1764137033218,412,-0.112000,-0.022000,1.042000,126,127,126,rest_head
1764137033239,412,-0.111000,-0.023000,1.042000,126,127,126,rest_head
1764137033260,412,-0.110000,-0.022000,1.043000,126,127,126,rest_head
1764137033281,412,-0.110000,-0.022000,1.042000,126,127,126,rest_head
1764137033302,413,-0.111000,-0.022000,1.044000,126,127,127,rest_head
1764137033322,413,-0.111000,-0.022000,1.044000,126,127,126,rest_head
1764137033342,414,-0.111000,-0.022000,1.044000,126,127,127,rest_head
1764137033363,415,-0.111000,-0.022000,1.044000,126,127,126,rest_head
1764137033383,415,-0.110000,-0.022000,1.044000,126,127,126,rest_head
1764137033404,414,-0.109000,-0.022000,1.044000,126,127,126,rest_head
1764137033423,415,-0.109000,-0.022000,1.044000,126,127,126,rest_head
1764137033444,415,-0.109000,-0.022000,1.045000,126,127,126,rest_head
1764137033466,415,-0.110000,-0.021000,1.045000,126,127,126,rest_head
1764137033487,415,-0.110000,-0.022000,1.044000,126,127,127,rest_head
1764137033508,415,-0.110000,-0.022000,1.044000,126,127,127,rest_head
1764137033529,415,-0.110000,-0.022000,1.043000,126,127,127,rest_head
1764137033550,415,-0.110000,-0.023000,1.043000,126,127,127,rest_head
1764137033571,416,-0.110000,-0.023000,1.043000,126,127,127,rest_head
1764137033592,416,-0.111000,-0.022000,1.043000,126,127,127,rest_head
1764137033613,416,-0.111000,-0.021000,1.043000,126,127,127,rest_head
1764137033633,416,-0.111000,-0.021000,1.043000,126,127,127,rest_head
1764137033654,415,-0.111000,-0.020000,1.044000,126,127,127,rest_head
1764137033673,415,-0.111000,-0.020000,1.044000,126,127,127,rest_head
1764137033694,416,-0.109000,-0.021000,1.043000,126,127,127,rest_head
1764137033714,416,-0.109000,-0.021000,1.043000,126,127,127,rest_head
1764137033735,416,-0.108000,-0.023000,1.043000,126,127,127,rest_head
1764137033756,416,-0.109000,-0.023000,1.043000,126,127,127,rest_head
1764137033777,416,-0.109000,-0.022000,1.043000,126,127,127,rest_head
1764137033797,417,-0.109000,-0.022000,1.044000,126,127,127,rest_head
1764137033817,417,-0.109000,-0.023000,1.044000,126,127,127,rest_head
1764137033838,417,-0.109000,-0.022000,1.043000,126,127,126,rest_head
1764137033858,418,-0.109000,-0.022000,1.043000,126,127,126,rest_head
1764137033879,418,-0.109000,-0.022000,1.043000,126,127,126,rest_head
1764137033899,418,-0.109000,-0.022000,1.043000,126,127,126,rest_head
1764137033919,418,-0.110000,-0.021000,1.042000,126,127,126,rest_head
1764137033940,417,-0.111000,-0.022000,1.043000,126,127,127,rest_head
1764137033960,417,-0.110000,-0.022000,1.044000,126,127,126,rest_head
1764137033980,418,-0.109000,-0.022000,1.044000,126,127,126,rest_head
1764137034001,418,-0.109000,-0.021000,1.045000,126,127,126,rest_head
1764137034022,417,-0.109000,-0.022000,1.044000,126,127,126,rest_head
1764137034043,417,-0.110000,-0.022000,1.043000,126,127,126,rest_head
1764137034063,417,-0.110000,-0.021000,1.044000,126,127,127,rest_head
1764137034084,416,-0.111000,-0.021000,1.044000,126,127,127,rest_head
1764137034104,416,-0.111000,-0.021000,1.044000,126,127,127,rest_head
1764137034125,417,-0.111000,-0.022000,1.044000,126,127,127,rest_head
1764137034145,417,-0.111000,-0.022000,1.043000,126,127,127,rest_head
1764137034166,417,-0.110000,-0.023000,1.042000,126,127,127,rest_head
1764137034186,416,-0.109000,-0.022000,1.043000,126,127,127,rest_head
1764137034206,416,-0.110000,-0.023000,1.042000,126,127,127,rest_head
1764137034227,416,-0.109000,-0.023000,1.043000,126,127,127,rest_head
1764137039536,343,-0.111000,-0.021000,1.043000,126,127,126,rest_head
1764137039557,343,-0.110000,-0.020000,1.044000,126,127,127,rest_head
1764137039578,344,-0.110000,-0.021000,1.044000,126,127,127,rest_head
1764137039599,344,-0.109000,-0.021000,1.044000,126,127,127,rest_head
1764137039618,345,-0.109000,-0.021000,1.043000,126,127,127,rest_head
1764137039638,345,-0.110000,-0.023000,1.044000,126,127,127,rest_head
1764137039659,346,-0.111000,-0.023000,1.043000,126,127,127,rest_head
1764137039679,347,-0.113000,-0.022000,1.043000,126,127,127,rest_head
1764137039700,347,-0.114000,-0.021000,1.042000,126,127,126,rest_head
1764137039719,347,-0.114000,-0.021000,1.042000,126,127,126,rest_head
1764137039740,348,-0.111000,-0.021000,1.043000,126,127,126,rest_head
1764137039761,348,-0.108000,-0.022000,1.043000,126,127,126,rest_head
1764137039782,348,-0.107000,-0.023000,1.044000,126,127,126,rest_head
1764137039803,348,-0.107000,-0.024000,1.044000,126,127,127,rest_head
1764137039825,349,-0.109000,-0.023000,1.044000,126,127,127,rest_head
1764137039847,349,-0.111000,-0.022000,1.043000,126,127,127,rest_head
1764137039866,349,-0.112000,-0.021000,1.043000,126,127,127,rest_head
1764137039887,349,-0.113000,-0.021000,1.042000,126,127,127,rest_head
1764137039908,349,-0.113000,-0.021000,1.042000,126,127,126,rest_head
1764137039929,350,-0.110000,-0.022000,1.043000,126,127,126,rest_head
1764137039950,349,-0.107000,-0.023000,1.044000,126,127,126,rest_head
1764137039971,350,-0.107000,-0.023000,1.044000,126,127,127,rest_head
1764137039991,351,-0.108000,-0.021000,1.043000,126,127,126,rest_head
1764137040013,351,-0.108000,-0.021000,1.043000,126,127,126,rest_head
1764137040035,351,-0.112000,-0.018000,1.042000,126,127,127,rest_head
1764137040056,351,-0.112000,-0.019000,1.041000,126,127,127,rest_head
1764137040077,350,-0.111000,-0.020000,1.041000,126,127,127,rest_head
1764137040096,351,-0.109000,-0.021000,1.042000,126,127,127,rest_head
1764137040117,351,-0.107000,-0.022000,1.043000,126,127,127,rest_head
1764137040137,351,-0.106000,-0.023000,1.043000,126,127,127,rest_head
1764137040158,352,-0.107000,-0.022000,1.043000,126,127,127,rest_head
1764137040178,353,-0.110000,-0.021000,1.042000,126,127,126,rest_head
1764137040199,352,-0.111000,-0.022000,1.042000,126,127,126,rest_head
1764137040219,353,-0.111000,-0.022000,1.041000,126,127,126,rest_head
1764137040240,353,-0.110000,-0.022000,1.041000,126,127,126,rest_head
1764137040261,353,-0.109000,-0.022000,1.042000,126,127,127,rest_head
1764137040282,354,-0.109000,-0.022000,1.043000,126,127,127,rest_head
1764137040302,355,-0.109000,-0.022000,1.043000,126,127,127,rest_head
1764137040322,354,-0.109000,-0.021000,1.043000,126,127,127,rest_head
1764137040343,355,-0.111000,-0.021000,1.044000,126,127,127,rest_head
1764137040363,355,-0.113000,-0.021000,1.043000,126,127,127,rest_head
1764137040384,357,-0.112000,-0.022000,1.043000,126,127,127,rest_head
1764137040404,358,-0.111000,-0.022000,1.044000,126,127,127,rest_head
1764137040425,359,-0.110000,-0.024000,1.044000,126,127,127,rest_head
1764137040446,360,-0.108000,-0.023000,1.044000,126,127,127,rest_head
1764137040467,361,-0.108000,-0.022000,1.043000,126,127,127,rest_head
1764137040488,362,-0.110000,-0.022000,1.043000,126,127,127,rest_head
1764137040510,362,-0.111000,-0.021000,1.042000,126,127,127,rest_head
1764137040529,363,-0.112000,-0.021000,1.043000,126,127,127,rest_head
1764137040550,364,-0.112000,-0.021000,1.043000,126,127,127,rest_head
1764137040570,366,-0.112000,-0.022000,1.043000,126,127,127,rest_head
1764137040591,367,-0.110000,-0.022000,1.043000,126,127,126,rest_head
1764137040611,368,-0.109000,-0.023000,1.043000,126,127,126,rest_head
1764137040632,369,-0.108000,-0.023000,1.043000,126,127,127,rest_head
1764137040652,370,-0.110000,-0.021000,1.042000,126,127,126,rest_head
1764137040673,370,-0.112000,-0.020000,1.042000,126,127,127,rest_head
1764137040692,371,-0.112000,-0.020000,1.042000,126,127,127,rest_head
1764137040713,373,-0.112000,-0.022000,1.041000,126,127,127,rest_head
1764137040735,373,-0.110000,-0.022000,1.042000,126,127,127,rest_head
1764137040755,373,-0.108000,-0.023000,1.042000,126,127,127,rest_head
1764137040777,373,-0.106000,-0.024000,1.042000,126,127,127,rest_head
1764137040798,375,-0.107000,-0.023000,1.042000,126,127,127,rest_head
1764137040818,374,-0.108000,-0.022000,1.043000,126,127,127,rest_head
1764137040838,374,-0.110000,-0.022000,1.043000,126,127,127,rest_head
1764137040859,375,-0.111000,-0.021000,1.043000,126,127,127,rest_head
1764137040879,376,-0.112000,-0.021000,1.042000,126,127,126,rest_head
1764137040899,376,-0.111000,-0.022000,1.043000,126,127,126,rest_head
1764137040920,378,-0.109000,-0.023000,1.042000,126,127,126,rest_head
1764137040941,378,-0.109000,-0.023000,1.043000,126,127,127,rest_head
1764137040961,379,-0.108000,-0.023000,1.043000,126,127,127,rest_head
1764137040983,380,-0.110000,-0.023000,1.042000,126,127,127,rest_head
1764137041004,380,-0.110000,-0.022000,1.043000,126,127,127,rest_head
1764137041024,380,-0.110000,-0.023000,1.044000,126,127,127,rest_head
1764137041045,381,-0.110000,-0.023000,1.043000,126,127,127,rest_head
1764137041065,381,-0.110000,-0.023000,1.043000,126,127,127,rest_head
1764137041087,379,-0.110000,-0.023000,1.043000,126,127,127,rest_head
1764137041108,378,-0.110000,-0.024000,1.043000,126,127,127,rest_head
1764137041129,378,-0.110000,-0.024000,1.041000,126,127,127,rest_head
1764137041150,379,-0.110000,-0.024000,1.041000,126,127,127,rest_head
1764137041171,380,-0.111000,-0.023000,1.041000,126,127,127,rest_head
1764137041192,381,-0.111000,-0.022000,1.041000,126,127,127,rest_head
1764137041213,381,-0.111000,-0.022000,1.042000,126,127,127,rest_head
1764137041233,381,-0.111000,-0.022000,1.043000,126,127,126,rest_head
1764137041254,381,-0.112000,-0.022000,1.043000,126,127,127,rest_head
1764137041273,382,-0.110000,-0.022000,1.044000,126,127,127,rest_head
1764137041293,382,-0.110000,-0.023000,1.043000,126,127,127,rest_head
1764137041313,381,-0.111000,-0.022000,1.042000,126,127,127,rest_head
1764137041334,381,-0.111000,-0.021000,1.042000,126,127,127,rest_head
1764137041354,382,-0.110000,-0.021000,1.042000,126,127,126,rest_head
1764137041376,382,-0.111000,-0.021000,1.042000,126,127,126,rest_head
1764137041397,383,-0.112000,-0.022000,1.042000,126,127,126,rest_head
1764137041418,382,-0.110000,-0.022000,1.042000,126,127,126,rest_head
1764137041440,381,-0.110000,-0.023000,1.042000,126,127,127,rest_head
1764137041461,381,-0.111000,-0.024000,1.043000,126,127,127,rest_head
1764137041482,381,-0.111000,-0.023000,1.043000,126,127,127,rest_head
1764137041502,381,-0.110000,-0.022000,1.044000,126,127,127,rest_head
1764137041523,382,-0.110000,-0.022000,1.044000,126,127,126,rest_head
1764137041543,382,-0.111000,-0.022000,1.043000,126,127,126,rest_head
1764137041564,384,-0.109000,-0.022000,1.043000,126,127,126,rest_head
1764137041584,385,-0.109000,-0.022000,1.042000,126,127,126,rest_head
1764137041604,385,-0.109000,-0.022000,1.043000,126,127,126,rest_head
1764137041625,386,-0.108000,-0.022000,1.044000,126,127,126,rest_head
1764137041645,386,-0.109000,-0.022000,1.045000,126,127,127,rest_head
1764137041666,387,-0.108000,-0.021000,1.045000,126,127,127,rest_head
1764137041689,387,-0.108000,-0.021000,1.044000,126,127,127,rest_head
1764137041708,387,-0.109000,-0.021000,1.044000,126,127,127,rest_head
1764137041729,387,-0.108000,-0.020000,1.044000,126,127,127,rest_head
1764137041748,387,-0.109000,-0.021000,1.044000,126,127,127,rest_head
1764137041768,387,-0.109000,-0.020000,1.044000,126,127,127,rest_head
1764137041789,387,-0.108000,-0.020000,1.045000,126,127,127,rest_head
1764137041809,387,-0.108000,-0.021000,1.046000,126,127,127,rest_head
1764137041830,387,-0.108000,-0.021000,1.045000,126,127,127,rest_head
1764137041850,387,-0.108000,-0.021000,1.045000,126,127,127,rest_head
1764137041871,387,-0.109000,-0.021000,1.043000,126,127,127,rest_head
1764137041892,387,-0.109000,-0.020000,1.043000,126,127,127,rest_head
1764137041913,387,-0.109000,-0.021000,1.043000,126,127,127,rest_head
1764137041934,387,-0.108000,-0.022000,1.043000,126,127,127,rest_head
1764137041955,387,-0.108000,-0.022000,1.044000,126,127,127,rest_head
1764137041976,387,-0.109000,-0.022000,1.044000,126,127,127,rest_head
1764137041997,386,-0.110000,-0.022000,1.044000,126,127,127,rest_head
1764137042018,386,-0.111000,-0.021000,1.043000,126,127,127,rest_head
1764137042038,385,-0.112000,-0.021000,1.043000,126,127,126,rest_head
1764137042059,386,-0.112000,-0.021000,1.043000,126,127,127,rest_head
1764137042080,386,-0.110000,-0.021000,1.043000,126,127,127,rest_head
1764137042100,387,-0.109000,-0.022000,1.042000,126,127,127,rest_head
1764137042120,387,-0.109000,-0.021000,1.043000,126,127,127,rest_head
1764137042142,387,-0.109000,-0.021000,1.043000,126,127,126,rest_head
1764137042163,387,-0.109000,-0.022000,1.044000,126,127,127,rest_head
1764137042184,387,-0.108000,-0.022000,1.044000,126,127,127,rest_head
1764137042205,387,-0.109000,-0.022000,1.044000,126,127,127,rest_head
1764137042225,386,-0.110000,-0.022000,1.045000,126,127,127,rest_head
1764137042246,386,-0.110000,-0.023000,1.044000,126,127,127,rest_head
1764137042266,385,-0.109000,-0.023000,1.044000,126,127,127,rest_head
1764137042287,385,-0.109000,-0.022000,1.043000,126,127,126,rest_head
1764137042308,386,-0.107000,-0.022000,1.043000,126,127,126,rest_head
1764137042329,386,-0.107000,-0.022000,1.044000,126,127,126,rest_head
1764137042350,387,-0.108000,-0.022000,1.043000,126,127,127,rest_head
1764137042371,386,-0.109000,-0.022000,1.042000,126,127,127,rest_head
1764137042393,388,-0.108000,-0.022000,1.042000,126,127,127,rest_head
1764137042414,387,-0.110000,-0.022000,1.043000,126,127,127,rest_head
1764137042435,389,-0.109000,-0.021000,1.042000,126,127,127,rest_head
1764137042455,389,-0.109000,-0.021000,1.043000,126,127,127,rest_head
1764137042475,389,-0.108000,-0.022000,1.043000,126,127,126,rest_head
1764137042497,389,-0.109000,-0.021000,1.043000,126,127,126,rest_head
1764137042517,390,-0.109000,-0.021000,1.043000,126,127,126,rest_head
1764137042537,390,-0.109000,-0.021000,1.043000,126,127,126,rest_head
1764137042559,391,-0.109000,-0.020000,1.044000,126,127,126,rest_head
1764137042580,391,-0.110000,-0.020000,1.044000,126,127,126,rest_head
1764137042601,392,-0.109000,-0.021000,1.044000,126,127,126,rest_head
1764137042623,392,-0.110000,-0.022000,1.043000,126,127,126,rest_head
1764137042643,392,-0.110000,-0.022000,1.043000,126,127,126,rest_head
1764137042664,392,-0.110000,-0.022000,1.042000,126,127,126,rest_head
1764137042684,392,-0.109000,-0.022000,1.042000,126,127,126,rest_head
1764137042705,391,-0.110000,-0.022000,1.042000,126,127,126,rest_head
1764137042726,390,-0.110000,-0.022000,1.042000,126,127,127,rest_head
1764137042747,388,-0.109000,-0.023000,1.042000,126,127,127,rest_head
1764137042767,383,-0.109000,-0.022000,1.042000,126,127,127,rest_head
1764137042788,380,-0.109000,-0.022000,1.042000,126,127,127,rest_head
1764137042810,375,-0.109000,-0.022000,1.042000,126,127,127,rest_head
1764137042831,365,-0.108000,-0.021000,1.042000,126,127,127,rest_head
1764137042851,353,-0.108000,-0.021000,1.043000,126,127,127,rest_head
1764137042872,313,-0.108000,-0.022000,1.043000,126,127,127,rest_head
1764137042892,286,-0.107000,-0.022000,1.043000,126,127,127,rest_head
1764137042912,275,-0.107000,-0.022000,1.043000,126,127,126,rest_head
1764137042933,263,-0.109000,-0.023000,1.042000,126,127,126,rest_head
1764137042953,249,-0.110000,-0.023000,1.042000,126,127,126,rest_head
1764137042974,246,-0.111000,-0.022000,1.042000,126,127,126,rest_head
1764137042994,250,-0.111000,-0.022000,1.042000,126,127,126,rest_head
1764137043014,261,-0.111000,-0.023000,1.043000,126,127,126,rest_head
1764137043035,280,-0.110000,-0.023000,1.044000,126,127,126,rest_head
1764137043056,293,-0.110000,-0.022000,1.045000,126,127,126,rest_head
1764137043077,306,-0.111000,-0.023000,1.045000,126,127,126,rest_head
1764137043098,315,-0.111000,-0.022000,1.046000,126,127,126,rest_head
1764137043119,332,-0.112000,-0.022000,1.045000,126,127,126,rest_head
1764137043139,339,-0.112000,-0.022000,1.044000,126,127,127,rest_head
1764137043160,344,-0.112000,-0.022000,1.044000,126,127,127,rest_head
1764137043180,348,-0.112000,-0.022000,1.045000,126,127,127,rest_head
1764137043201,350,-0.112000,-0.023000,1.044000,126,127,127,rest_head
1764137043221,352,-0.111000,-0.022000,1.044000,126,127,127,rest_head
1764137043241,355,-0.111000,-0.023000,1.044000,126,127,127,rest_head
1764137043262,359,-0.112000,-0.023000,1.044000,126,127,127,rest_head
1764137043284,360,-0.111000,-0.023000,1.044000,126,127,127,rest_head
1764137043304,362,-0.111000,-0.023000,1.045000,126,127,127,rest_head
1764137043325,363,-0.111000,-0.022000,1.045000,126,127,127,rest_head
1764137043345,364,-0.111000,-0.021000,1.045000,126,127,127,rest_head
1764137043366,365,-0.111000,-0.020000,1.044000,126,127,127,rest_head
1764137043386,368,-0.111000,-0.021000,1.044000,126,127,126,rest_head
1764137043406,369,-0.111000,-0.020000,1.044000,126,127,127,rest_head
1764137043427,370,-0.111000,-0.021000,1.043000,126,127,127,rest_head
1764137043447,370,-0.110000,-0.022000,1.043000,126,127,127,rest_head
1764137043468,370,-0.112000,-0.022000,1.043000,126,127,126,rest_head
1764137043488,372,-0.111000,-0.022000,1.044000,126,127,127,rest_head
1764137043509,373,-0.112000,-0.022000,1.044000,126,127,127,rest_head
1764137043530,372,-0.111000,-0.022000,1.044000,126,127,127,rest_head
1764137043550,371,-0.109000,-0.021000,1.045000,126,127,127,rest_head
1764137043571,368,-0.110000,-0.022000,1.044000,126,127,127,rest_head
1764137043591,359,-0.111000,-0.023000,1.043000,126,127,127,rest_head
1764137043612,352,-0.110000,-0.022000,1.043000,126,127,127,rest_head
1764137043631,348,-0.111000,-0.022000,1.043000,126,127,127,rest_head
1764137043651,348,-0.112000,-0.021000,1.043000,126,127,127,rest_head
1764137043672,346,-0.111000,-0.020000,1.043000,126,127,127,rest_head
1764137043692,342,-0.111000,-0.020000,1.043000,126,127,127,rest_head
1764137043712,339,-0.110000,-0.021000,1.043000,126,127,126,rest_head
1764137043733,341,-0.109000,-0.022000,1.042000,126,127,127,rest_head
1764137043753,343,-0.110000,-0.022000,1.043000,126,127,126,rest_head
1764137043774,343,-0.110000,-0.021000,1.043000,126,127,126,rest_head
1764137043795,345,-0.111000,-0.021000,1.043000,126,127,127,rest_head
1764137043816,346,-0.110000,-0.021000,1.043000,126,127,126,rest_head
1764137043837,348,-0.111000,-0.021000,1.044000,126,127,127,rest_head
1764137043858,352,-0.110000,-0.021000,1.044000,126,127,127,rest_head
1764137043878,355,-0.109000,-0.021000,1.044000,126,127,126,rest_head
1764137043899,357,-0.109000,-0.021000,1.045000,126,127,126,rest_head
1764137043919,365,-0.109000,-0.021000,1.044000,126,127,126,rest_head
1764137043939,367,-0.109000,-0.021000,1.044000,126,127,126,rest_head
1764137043960,370,-0.110000,-0.021000,1.044000,126,127,127,rest_head
1764137043980,375,-0.110000,-0.020000,1.043000,126,127,127,rest_head
1764137044001,383,-0.110000,-0.020000,1.045000,126,127,126,rest_head
1764137044022,394,-0.111000,-0.021000,1.044000,126,127,126,rest_head
1764137044044,408,-0.111000,-0.022000,1.044000,126,127,126,rest_head
1764137044064,417,-0.111000,-0.023000,1.044000,126,127,126,rest_head
1764137044086,418,-0.112000,-0.022000,1.043000,126,127,126,rest_head
1764137044107,417,-0.112000,-0.022000,1.044000,126,127,126,rest_head
1764137044127,418,-0.112000,-0.022000,1.044000,126,127,126,rest_head
1764137044148,413,-0.111000,-0.021000,1.043000,126,127,126,rest_head
1764137044168,404,-0.111000,-0.021000,1.043000,126,127,126,rest_head
1764137044189,392,-0.111000,-0.021000,1.042000,126,127,126,rest_head
1764137044211,372,-0.110000,-0.021000,1.042000,126,127,126,rest_head
1764137044232,358,-0.110000,-0.021000,1.043000,126,127,126,rest_head
1764137044252,338,-0.110000,-0.021000,1.044000,126,127,126,rest_head
1764137044273,326,-0.110000,-0.022000,1.043000,126,127,126,rest_head
1764137044294,313,-0.110000,-0.022000,1.043000,126,127,126,rest_head
1764137044314,310,-0.109000,-0.021000,1.044000,126,127,126,rest_head
1764137044335,313,-0.109000,-0.021000,1.043000,126,127,126,rest_head
1764137044356,313,-0.110000,-0.022000,1.043000,126,127,126,rest_head
1764137044376,328,-0.111000,-0.022000,1.044000,126,127,126,rest_head
1764137044397,350,-0.111000,-0.022000,1.044000,126,127,127,rest_head
1764137044416,388,-0.112000,-0.022000,1.043000,126,127,127,rest_head
1764137044437,424,-0.111000,-0.023000,1.042000,126,127,127,rest_head
1764137044457,441,-0.110000,-0.022000,1.043000,126,127,127,rest_head
1764137044478,455,-0.110000,-0.023000,1.043000,126,127,127,rest_head
1764137044498,459,-0.108000,-0.023000,1.043000,126,127,126,rest_head
1764137044519,454,-0.107000,-0.022000,1.044000,126,127,126,rest_head
1764137044540,452,-0.107000,-0.021000,1.045000,126,127,126,rest_head
1764137044568,437,-0.109000,-0.021000,1.044000,126,127,126,rest_head
1764137044588,423,-0.110000,-0.020000,1.044000,126,127,127,rest_head
1764137044610,413,-0.111000,-0.020000,1.044000,126,127,127,rest_head
1764137044631,398,-0.111000,-0.021000,1.043000,126,127,127,rest_head
1764137044652,388,-0.110000,-0.023000,1.043000,126,127,127,rest_head
1764137044673,376,-0.109000,-0.024000,1.043000,126,127,127,rest_head
1764137044693,361,-0.110000,-0.024000,1.043000,126,127,127,rest_head
1764137044714,349,-0.110000,-0.023000,1.042000,126,127,126,rest_head
1764137044734,339,-0.110000,-0.023000,1.042000,126,127,126,rest_head
1764137044754,327,-0.110000,-0.022000,1.042000,126,127,126,rest_head
1764137044775,316,-0.111000,-0.021000,1.043000,126,127,127,rest_head
1764137044795,311,-0.111000,-0.021000,1.044000,126,127,127,rest_head
1764137044816,309,-0.111000,-0.021000,1.043000,126,127,126,rest_head
1764137044836,312,-0.111000,-0.022000,1.043000,126,127,126,rest_head
1764137044857,319,-0.111000,-0.022000,1.043000,126,127,126,rest_head
1764137044877,323,-0.112000,-0.022000,1.042000,126,127,126,rest_head
1764137044898,332,-0.111000,-0.022000,1.041000,126,127,126,rest_head
1764137044918,347,-0.112000,-0.021000,1.043000,126,127,126,rest_head
1764137044941,359,-0.112000,-0.021000,1.043000,126,127,126,rest_head
1764137044961,374,-0.111000,-0.022000,1.043000,126,127,126,rest_head
1764137044981,389,-0.111000,-0.023000,1.042000,126,127,127,rest_head
1764137045002,429,-0.111000,-0.023000,1.043000,126,127,127,rest_head
1764137045022,434,-0.109000,-0.023000,1.043000,126,127,127,rest_head
1764137045043,429,-0.109000,-0.023000,1.043000,126,127,127,rest_head
1764137045062,403,-0.110000,-0.021000,1.045000,127,127,127,rest_head
1764137045082,336,-0.110000,-0.021000,1.045000,127,127,127,rest_head
1764137045102,304,-0.112000,-0.017000,1.050000,126,127,127,rest_head
1764137045123,311,-0.117000,-0.018000,1.043000,126,127,126,rest_head
1764137045144,317,-0.118000,-0.020000,1.045000,126,127,126,rest_head
1764137045165,323,-0.115000,-0.018000,1.046000,126,127,126,rest_head
1764137045188,315,-0.111000,-0.021000,1.044000,126,127,127,rest_head
1764137045209,271,-0.108000,-0.027000,1.041000,126,127,127,rest_head
1764137045230,253,-0.104000,-0.026000,1.044000,126,127,127,rest_head
1764137045252,265,-0.103000,-0.021000,1.049000,126,127,127,rest_head
1764137045271,277,-0.113000,-0.022000,1.040000,126,127,127,rest_head
1764137045291,294,-0.113000,-0.022000,1.040000,126,127,127,rest_head
1764137045312,309,-0.117000,-0.020000,1.041000,126,127,126,rest_head
1764137045331,324,-0.116000,-0.017000,1.042000,126,127,126,rest_head
1764137045352,336,-0.113000,-0.023000,1.041000,126,127,127,rest_head
1764137045373,345,-0.108000,-0.024000,1.043000,126,127,127,rest_head
1764137045395,358,-0.106000,-0.023000,1.047000,126,127,127,rest_head
1764137045417,403,-0.104000,-0.023000,1.047000,126,127,127,rest_head
1764137045438,436,-0.109000,-0.023000,1.043000,126,127,127,rest_head
1764137045459,437,-0.113000,-0.020000,1.039000,127,127,127,rest_head
1764137045480,413,-0.115000,-0.018000,1.042000,126,127,126,rest_head
1764137045500,390,-0.114000,-0.015000,1.044000,126,127,126,rest_head
1764137045521,362,-0.115000,-0.017000,1.043000,126,127,126,rest_head
1764137056049,342,0.850000,-0.161000,0.580000,127,127,127,hug
1764137056069,344,0.850000,-0.160000,0.580000,127,127,127,hug
1764137056089,348,0.852000,-0.162000,0.578000,127,127,127,hug
1764137056109,349,0.853000,-0.162000,0.578000,127,127,126,hug
1764137056130,348,0.849000,-0.160000,0.578000,126,127,126,hug
1764137056150,350,0.850000,-0.159000,0.578000,126,127,127,hug
1764137056171,351,0.850000,-0.157000,0.581000,127,127,127,hug
1764137056191,352,0.850000,-0.158000,0.583000,127,127,127,hug
1764137056213,352,0.850000,-0.157000,0.583000,127,127,127,hug
1764137056234,352,0.852000,-0.156000,0.580000,127,127,127,hug
1764137056254,353,0.854000,-0.159000,0.581000,127,127,127,hug
1764137056275,355,0.854000,-0.160000,0.579000,127,127,127,hug
1764137056295,356,0.852000,-0.162000,0.575000,127,127,127,hug
1764137056316,361,0.857000,-0.166000,0.575000,127,127,127,hug
1764137056335,361,0.860000,-0.169000,0.577000,126,127,126,hug
1764137056356,362,0.857000,-0.167000,0.574000,126,127,126,hug
1764137056376,362,0.857000,-0.168000,0.572000,126,127,126,hug
1764137056396,361,0.858000,-0.163000,0.574000,126,127,126,hug
1764137056416,360,0.853000,-0.154000,0.578000,126,127,126,hug
1764137056437,361,0.849000,-0.152000,0.573000,127,127,126,hug
1764137056459,361,0.852000,-0.154000,0.572000,127,127,126,hug
1764137056479,362,0.856000,-0.156000,0.572000,127,127,127,hug
1764137056501,362,0.855000,-0.160000,0.570000,127,127,127,hug
1764137056522,362,0.856000,-0.160000,0.575000,127,127,126,hug
1764137056542,362,0.852000,-0.157000,0.576000,126,127,126,hug
1764137056563,364,0.850000,-0.155000,0.579000,126,127,126,hug
1764137056583,365,0.850000,-0.154000,0.579000,126,127,126,hug
1764137056604,366,0.853000,-0.155000,0.580000,126,127,126,hug
1764137056624,366,0.861000,-0.160000,0.577000,126,127,126,hug
1764137056645,367,0.872000,-0.169000,0.571000,126,127,126,hug
1764137056665,366,0.867000,-0.163000,0.568000,126,127,126,hug
1764137056686,367,0.859000,-0.154000,0.562000,126,127,126,hug
1764137056707,367,0.851000,-0.144000,0.562000,127,127,126,hug
1764137056727,365,0.838000,-0.140000,0.565000,127,127,126,hug
1764137056746,363,0.848000,-0.144000,0.562000,127,127,127,hug
1764137056768,357,0.860000,-0.157000,0.567000,126,127,127,hug
1764137056789,354,0.868000,-0.166000,0.576000,126,127,126,hug
1764137056809,351,0.867000,-0.172000,0.570000,127,127,126,hug
1764137056829,348,0.872000,-0.162000,0.557000,127,127,126,hug
1764137056850,350,0.872000,-0.154000,0.561000,126,127,126,hug
1764137056869,353,0.860000,-0.144000,0.562000,126,127,126,hug
1764137056890,357,0.849000,-0.140000,0.551000,126,127,126,hug
1764137056910,359,0.871000,-0.158000,0.571000,126,127,126,hug
1764137056930,360,0.862000,-0.161000,0.578000,126,127,126,hug
1764137056951,360,0.863000,-0.164000,0.581000,126,127,126,hug
1764137056971,359,0.870000,-0.163000,0.580000,126,127,126,hug
1764137056992,361,0.873000,-0.156000,0.577000,126,127,126,hug
1764137057014,361,0.867000,-0.151000,0.578000,126,127,126,hug
1764137057035,360,0.862000,-0.142000,0.570000,127,127,126,hug
1764137057056,358,0.866000,-0.136000,0.551000,127,126,126,hug
1764137057077,356,0.881000,-0.139000,0.536000,127,126,127,hug
1764137057097,358,0.884000,-0.138000,0.521000,127,126,127,hug
1764137057117,358,0.883000,-0.133000,0.507000,127,126,127,hug
1764137057137,354,0.884000,-0.136000,0.512000,127,126,127,hug
1764137057158,348,0.885000,-0.138000,0.527000,127,126,127,hug
1764137057178,344,0.872000,-0.136000,0.550000,127,127,126,hug
1764137057199,342,0.870000,-0.139000,0.554000,127,127,126,hug
1764137057219,342,0.877000,-0.135000,0.543000,127,127,126,hug
1764137057240,339,0.880000,-0.133000,0.542000,127,127,126,hug
1764137057261,337,0.876000,-0.131000,0.545000,127,127,126,hug
1764137057281,335,0.875000,-0.125000,0.537000,127,127,127,hug
1764137057302,337,0.882000,-0.126000,0.536000,127,127,127,hug
1764137057323,339,0.885000,-0.133000,0.538000,127,127,127,hug
1764137057343,340,0.888000,-0.139000,0.531000,127,127,127,hug
1764137057362,343,0.894000,-0.146000,0.525000,127,127,127,hug
1764137057383,344,0.896000,-0.154000,0.533000,127,127,126,hug
1764137057404,345,0.894000,-0.151000,0.538000,126,127,126,hug
1764137057424,346,0.885000,-0.143000,0.542000,126,126,126,hug
1764137057445,348,0.871000,-0.130000,0.548000,127,126,126,hug
1764137057465,348,0.872000,-0.124000,0.545000,127,127,126,hug
1764137057485,349,0.870000,-0.115000,0.540000,127,127,126,hug
1764137057506,350,0.869000,-0.108000,0.532000,127,127,126,hug
1764137057526,351,0.876000,-0.105000,0.527000,127,127,126,hug
1764137057547,353,0.885000,-0.104000,0.531000,127,127,127,hug
1764137057568,352,0.890000,-0.115000,0.534000,127,127,127,hug
1764137057588,352,0.893000,-0.133000,0.536000,127,127,127,hug
1764137057609,351,0.905000,-0.152000,0.544000,127,127,127,hug
1764137057629,351,0.905000,-0.157000,0.546000,127,126,126,hug
1764137057649,349,0.895000,-0.149000,0.543000,127,126,126,hug
1764137057670,346,0.885000,-0.125000,0.534000,128,126,126,hug
1764137057690,346,0.881000,-0.097000,0.517000,128,127,126,hug
1764137057711,346,0.868000,-0.068000,0.499000,127,127,127,hug
1764137057731,346,0.873000,-0.077000,0.501000,127,127,127,hug
1764137057752,348,0.882000,-0.098000,0.507000,127,127,127,hug
1764137057773,349,0.889000,-0.117000,0.518000,127,127,127,hug
1764137057794,349,0.891000,-0.125000,0.530000,127,127,127,hug
1764137057814,350,0.896000,-0.130000,0.530000,127,127,127,hug
1764137057834,351,0.898000,-0.127000,0.530000,126,127,127,hug
1764137057855,352,0.891000,-0.120000,0.535000,126,127,127,hug
1764137057875,353,0.890000,-0.118000,0.534000,126,127,127,hug
1764137057896,355,0.888000,-0.116000,0.526000,126,127,127,hug
1764137057916,356,0.888000,-0.118000,0.527000,126,127,127,hug
1764137057936,358,0.888000,-0.119000,0.520000,127,127,127,hug
1764137057959,360,0.893000,-0.118000,0.515000,127,127,127,hug
1764137057979,362,0.889000,-0.116000,0.524000,127,127,127,hug
1764137058000,363,0.887000,-0.115000,0.514000,127,127,127,hug
1764137058022,364,0.888000,-0.114000,0.512000,127,127,127,hug
1764137058043,366,0.885000,-0.114000,0.522000,127,127,127,hug
1764137058064,367,0.888000,-0.113000,0.522000,126,127,127,hug
1764137058084,368,0.888000,-0.114000,0.516000,126,127,127,hug
